# ICM42688 vertical acceleration GUI log
# vertical_accel_mps2=(accel_z_g-1.0)*9.80665
# start_unix=1778752813
host_time_iso,elapsed_s,imu_time_us,imu_sample,imu_temp_c,accel_x_g,accel_y_g,accel_z_g,vertical_accel_g,vertical_accel_mps2,gyro_x_dps,gyro_y_dps,gyro_z_dps,imu_failed_reads
2026-05-14T18:00:13.246,0.005,20540199,942,25.528,0.00049,-0.11182,-0.96924,-1.969240,-19.311647,-0.122,0.122,-0.183,1
2026-05-14T18:00:13.297,0.057,20560198,943,25.543,0.00000,-0.11084,-0.96973,-1.969730,-19.316453,-0.061,0.183,-0.183,1
2026-05-14T18:00:13.298,0.057,20574931,944,25.543,-0.00244,-0.11035,-0.97021,-1.970210,-19.321160,-0.122,0.183,-0.183,1
2026-05-14T18:00:13.309,0.068,20600197,945,25.543,-0.00098,-0.11133,-0.97119,-1.971190,-19.330770,-0.122,0.183,-0.183,1
2026-05-14T18:00:13.331,0.091,20620202,946,25.528,-0.00049,-0.00049,-0.00049,-1.000490,-9.811455,-0.061,-0.061,-0.061,1
2026-05-14T18:00:13.344,0.103,20634943,947,25.543,-0.00049,-0.11133,-0.97217,-1.972170,-19.340381,-0.122,0.183,-0.183,1
2026-05-14T18:00:13.367,0.127,20660201,948,25.543,0.00195,-0.11182,-0.98242,-1.982420,-19.440899,-0.061,0.183,-0.244,1
2026-05-14T18:00:13.392,0.152,20680198,949,25.543,-0.00195,-0.11133,-0.97412,-1.974120,-19.359504,-0.061,0.122,-0.183,1
2026-05-14T18:00:13.405,0.164,20694932,950,25.543,-0.00049,-0.11182,-0.97266,-1.972660,-19.345186,-0.122,0.244,-0.183,1
2026-05-14T18:00:13.451,0.211,20720210,951,25.559,-0.00049,-0.11133,-0.96973,-1.969730,-19.316453,-0.061,0.183,-0.122,1
2026-05-14T18:00:13.452,0.211,20740202,952,25.559,0.00000,-0.10986,-0.97119,-1.971190,-19.330770,-0.122,0.183,-0.183,1
2026-05-14T18:00:13.462,0.221,20754930,953,25.528,-0.00049,-0.11035,-0.96973,-1.969730,-19.316453,-0.061,0.122,-0.183,1
2026-05-14T18:00:13.487,0.247,20780201,954,25.543,-0.00098,-0.11133,-0.97119,-1.971190,-19.330770,-0.061,0.122,-0.122,1
2026-05-14T18:00:13.512,0.272,20800198,955,25.528,0.00049,-0.11133,-0.97070,-1.970700,-19.325965,-0.122,0.183,-0.305,1
2026-05-14T18:00:13.523,0.282,20814932,956,25.559,-0.00049,-0.11035,-0.97119,-1.971190,-19.330770,-0.061,0.183,-0.183,1
2026-05-14T18:00:13.547,0.307,20840201,957,25.574,0.00098,-0.11084,-0.97021,-1.970210,-19.321160,-0.122,0.183,-0.244,1
2026-05-14T18:00:13.572,0.331,20860202,958,25.543,-0.00049,-0.11084,-0.96924,-1.969240,-19.311647,-0.061,0.183,-0.122,1
2026-05-14T18:00:13.584,0.344,20874943,959,25.559,0.00049,-0.11035,-0.97070,-1.970700,-19.325965,-0.061,0.183,-0.183,1
2026-05-14T18:00:13.609,0.368,20900201,960,25.574,0.00098,-0.11035,-0.97070,-1.970700,-19.325965,-0.122,0.122,-0.183,1
2026-05-14T18:00:13.621,0.380,20920198,961,25.559,-0.00146,-0.11084,-0.97168,-1.971680,-19.335576,-0.061,0.183,-0.122,1
2026-05-14T18:00:13.645,0.404,20934945,962,25.574,-0.00049,-0.10938,-0.96973,-1.969730,-19.316453,-0.061,0.183,-0.122,1
2026-05-14T18:00:13.671,0.430,20960200,963,25.543,-0.00049,-0.11182,-0.97070,-1.970700,-19.325965,-0.122,0.183,-0.183,1
2026-05-14T18:00:13.682,0.441,20980202,964,25.543,0.00000,-0.11133,-0.97119,-1.971190,-19.330770,-0.061,0.183,-0.183,1
2026-05-14T18:00:13.705,0.464,20994943,965,25.543,-0.00146,-0.10938,-0.97119,-1.971190,-19.330770,-0.122,0.183,-0.122,1
2026-05-14T18:00:13.730,0.490,21020212,966,25.559,-0.00098,-0.11035,-0.97119,-1.971190,-19.330770,-0.122,0.183,-0.183,1
2026-05-14T18:00:13.743,0.502,21040210,967,25.559,0.00000,-0.11084,-0.97070,-1.970700,-19.325965,-0.061,0.183,-0.183,1
2026-05-14T18:00:13.755,0.515,21054958,968,25.528,-0.00049,-0.11182,-0.97168,-1.971680,-19.335576,-0.061,0.183,-0.183,1
2026-05-14T18:00:13.791,0.550,21080219,969,25.528,0.00000,-0.11133,-0.97070,-1.970700,-19.325965,-0.122,0.183,-0.183,1
2026-05-14T18:00:13.801,0.561,21100208,970,25.574,0.00049,-0.11133,-0.97119,-1.971190,-19.330770,-0.061,0.183,-0.061,1
2026-05-14T18:00:13.827,0.586,21114942,971,25.543,-0.00049,-0.11084,-0.96973,-1.969730,-19.316453,-0.061,0.244,-0.183,1
2026-05-14T18:00:13.852,0.611,21140208,972,25.574,0.00049,-0.10986,-0.97070,-1.970700,-19.325965,-0.061,0.122,-0.183,1
2026-05-14T18:00:13.863,0.622,21160210,973,25.589,-0.00195,-0.11084,-0.97021,-1.970210,-19.321160,-0.122,0.183,-0.122,1
2026-05-14T18:00:13.884,0.644,21174945,974,25.559,0.00000,-0.11035,-0.96875,-1.968750,-19.306842,-0.061,0.122,-0.183,1
2026-05-14T18:00:13.941,0.700,21200210,975,25.543,0.00049,-0.11084,-0.96973,-1.969730,-19.316453,-0.061,0.183,-0.183,1
2026-05-14T18:00:13.941,0.700,21220208,976,25.589,-0.00098,-0.11084,-0.96924,-1.969240,-19.311647,-0.122,0.183,-0.183,1
2026-05-14T18:00:13.951,0.710,21234956,977,25.559,-0.00049,-0.11035,-0.97070,-1.970700,-19.325965,-0.122,0.183,-0.122,1
2026-05-14T18:00:13.967,0.726,21260208,978,25.559,-0.00049,-0.11133,-0.97217,-1.972170,-19.340381,-0.061,0.183,-0.183,1
2026-05-14T18:00:13.992,0.751,21280198,979,25.513,0.00000,-0.11084,-0.97217,-1.972170,-19.340381,-0.122,0.183,-0.122,1
2026-05-14T18:00:14.002,0.761,21294958,980,25.528,0.00000,-0.11084,-0.97119,-1.971190,-19.330770,-0.122,0.183,-0.183,1
2026-05-14T18:00:14.040,0.799,21334958,981,25.574,-0.00098,-0.11328,-0.97852,-1.978520,-19.402653,0.000,0.244,-0.183,1
2026-05-14T18:00:14.064,0.823,21360210,982,25.589,-0.00049,-0.11035,-0.97021,-1.970210,-19.321160,-0.061,0.183,-0.183,1
2026-05-14T18:00:14.087,0.846,21380203,983,25.574,-0.00049,-0.10986,-0.96729,-1.967290,-19.292524,-0.122,0.183,-0.183,1
2026-05-14T18:00:14.099,0.858,21394932,984,25.513,0.00000,-0.10986,-0.96973,-1.969730,-19.316453,-0.061,0.183,-0.122,1
2026-05-14T18:00:14.122,0.881,21420210,985,25.528,-0.00098,-0.11084,-0.97119,-1.971190,-19.330770,-0.061,0.183,-0.183,1
2026-05-14T18:00:14.145,0.905,21440202,986,25.574,0.00000,-0.11035,-0.97070,-1.970700,-19.325965,-0.061,0.183,-0.122,1
2026-05-14T18:00:14.156,0.915,21454956,987,25.543,0.00049,-0.10986,-0.96875,-1.968750,-19.306842,-0.061,0.183,-0.122,1
2026-05-14T18:00:14.191,0.950,21480218,988,25.559,-0.00098,-0.11084,-0.97119,-1.971190,-19.330770,-0.122,0.183,-0.183,1
2026-05-14T18:00:14.201,0.960,21500227,989,25.559,-0.00049,-0.11035,-0.97021,-1.970210,-19.321160,-0.061,0.183,-0.183,1
2026-05-14T18:00:14.225,0.985,21515966,990,25.559,-0.00049,-0.10889,-0.97070,-1.970700,-19.325965,-0.061,0.183,-0.183,1
2026-05-14T18:00:14.249,1.008,21541219,991,25.543,-0.00146,-0.10986,-0.96973,-1.969730,-19.316453,-0.061,0.183,-0.183,1
2026-05-14T18:00:14.262,1.021,21561230,992,25.543,0.00000,-0.11084,-0.96729,-1.967290,-19.292524,-0.061,0.183,-0.122,1
2026-05-14T18:00:14.286,1.045,21576953,993,25.528,-0.00098,-0.11523,-0.99268,-1.992680,-19.541515,-0.122,0.183,-0.183,1
2026-05-14T18:00:14.311,1.071,21602218,994,25.559,0.00244,-0.11230,-0.98437,-1.984370,-19.460022,-0.061,0.244,-0.183,1
2026-05-14T18:00:14.324,1.083,21622210,995,25.574,-0.00293,-0.10986,-0.97217,-1.972170,-19.340381,-0.122,0.183,-0.183,1
2026-05-14T18:00:14.347,1.107,21636945,996,25.574,0.00195,-0.10938,-0.96729,-1.967290,-19.292524,-0.122,0.122,-0.183,1
2026-05-14T18:00:14.416,1.175,21662219,997,25.543,-0.00098,-0.11182,-0.97363,-1.973630,-19.354699,-0.061,0.122,-0.244,1
2026-05-14T18:00:14.416,1.176,21682229,998,25.543,0.00000,-0.11182,-0.96973,-1.969730,-19.316453,-0.061,0.183,-0.183,1
2026-05-14T18:00:14.417,1.176,21697952,999,25.528,0.00098,-0.11035,-0.96680,-1.966800,-19.287719,-0.122,0.122,-0.183,1
2026-05-14T18:00:14.428,1.187,21723209,1000,25.574,-0.00098,-0.10938,-0.97021,-1.970210,-19.321160,-0.061,0.183,-0.122,1
2026-05-14T18:00:14.451,1.210,21743228,1001,25.543,0.00000,-0.10889,-0.97119,-1.971190,-19.330770,-0.061,0.183,-0.122,1
2026-05-14T18:00:14.464,1.223,21757956,1002,25.543,-0.00195,-0.11133,-0.97168,-1.971680,-19.335576,-0.122,0.183,-0.183,1
2026-05-14T18:00:14.489,1.248,21784235,1003,25.528,0.00049,-0.10986,-0.97021,-1.970210,-19.321160,-0.061,0.122,-0.122,1
2026-05-14T18:00:14.512,1.271,21804217,1004,25.543,0.00000,-0.11084,-0.97119,-1.971190,-19.330770,-0.061,0.183,-0.122,1
2026-05-14T18:00:14.525,1.284,21819973,1005,25.574,0.00049,-0.11133,-0.97070,-1.970700,-19.325965,-0.061,0.183,-0.183,1
2026-05-14T18:00:14.549,1.308,21845232,1006,25.543,-0.00049,-0.11035,-0.96973,-1.969730,-19.316453,-0.061,0.122,-0.122,1
2026-05-14T18:00:14.574,1.333,21865228,1007,25.559,-0.00098,-0.10986,-0.96973,-1.969730,-19.316453,-0.122,0.183,-0.122,1
2026-05-14T18:00:14.586,1.346,21879969,1008,25.559,0.00098,-0.11133,-0.96973,-1.969730,-19.316453,-0.061,0.183,-0.122,1
2026-05-14T18:00:14.609,1.368,21906236,1009,25.543,0.00000,-0.11133,-0.96924,-1.969240,-19.311647,-0.061,0.183,-0.122,1
2026-05-14T18:00:14.634,1.393,21926217,1010,25.574,0.00000,-0.11035,-0.96973,-1.969730,-19.316453,-0.061,0.183,-0.183,1
2026-05-14T18:00:14.647,1.406,21941960,1011,25.574,0.00000,-0.11035,-0.97070,-1.970700,-19.325965,-0.061,0.183,-0.183,1
2026-05-14T18:00:14.670,1.429,21967212,1012,25.589,-0.00098,-0.10986,-0.96875,-1.968750,-19.306842,-0.122,0.122,-0.061,1
2026-05-14T18:00:14.695,1.454,21987228,1013,25.543,0.00049,-0.10938,-0.96729,-1.967290,-19.292524,-0.122,0.183,-0.183,1
2026-05-14T18:00:14.707,1.467,22001969,1014,25.543,0.00098,-0.10938,-0.96680,-1.966800,-19.287719,-0.061,0.122,-0.183,1
2026-05-14T18:00:14.732,1.492,22028227,1015,25.543,-0.00195,-0.11035,-0.96533,-1.965330,-19.273303,-0.061,0.183,-0.183,1
2026-05-14T18:00:14.757,1.517,22048217,1016,25.559,0.00000,-0.10986,-0.96729,-1.967290,-19.292524,-0.061,0.183,-0.183,1
2026-05-14T18:00:14.770,1.529,22063960,1017,25.559,-0.00049,-0.10986,-0.97168,-1.971680,-19.335576,-0.061,0.183,-0.183,1
2026-05-14T18:00:14.794,1.553,22089231,1018,25.559,-0.00049,-0.11133,-0.97363,-1.973630,-19.354699,-0.122,0.183,-0.183,1
2026-05-14T18:00:14.818,1.577,22109228,1019,25.559,0.00000,-0.10986,-0.97070,-1.970700,-19.325965,-0.122,0.183,-0.183,1
2026-05-14T18:00:14.831,1.590,22123956,1020,25.543,-0.00098,-0.11035,-0.97070,-1.970700,-19.325965,-0.122,0.183,-0.183,1
2026-05-14T18:00:14.918,1.677,22150227,1021,25.559,-0.00098,-0.11133,-0.97021,-1.970210,-19.321160,-0.183,0.183,-0.122,1
2026-05-14T18:00:14.918,1.678,22170217,1022,25.528,-0.00146,-0.11133,-0.97119,-1.971190,-19.330770,-0.061,0.122,-0.122,1
2026-05-14T18:00:14.919,1.678,22185973,1023,25.574,0.00000,-0.10986,-0.97021,-1.970210,-19.321160,-0.061,0.122,-0.183,1
2026-05-14T18:00:14.925,1.684,22211232,1024,25.543,0.00000,-0.11035,-0.97021,-1.970210,-19.321160,-0.122,0.183,-0.183,1
2026-05-14T18:00:14.944,1.703,22231231,1025,25.543,0.00000,-0.10938,-0.96875,-1.968750,-19.306842,-0.122,0.183,-0.183,1
2026-05-14T18:00:14.956,1.715,22245956,1026,25.574,0.00049,-0.10986,-0.97070,-1.970700,-19.325965,-0.122,0.122,-0.183,1
2026-05-14T18:00:14.981,1.741,22272212,1027,25.574,0.00000,-0.11084,-0.97119,-1.971190,-19.330770,-0.122,0.183,-0.183,1
2026-05-14T18:00:14.994,1.753,22292202,1028,25.589,0.00000,-0.11133,-0.97168,-1.971680,-19.335576,-0.061,0.122,-0.183,1
2026-05-14T18:00:15.019,1.778,22306930,1029,25.559,-0.00049,-0.11182,-0.97021,-1.970210,-19.321160,-0.122,0.183,-0.122,1
2026-05-14T18:00:15.055,1.814,22343940,1030,25.559,-0.00098,-0.11182,-0.97168,-1.971680,-19.335576,-0.061,0.122,-0.183,1
2026-05-14T18:00:15.080,1.840,22369210,1031,25.574,-0.00049,-0.11035,-0.97119,-1.971190,-19.330770,-0.061,0.183,-0.183,1
2026-05-14T18:00:15.093,1.853,22389209,1032,25.543,-0.00098,-0.11133,-0.97070,-1.970700,-19.325965,-0.122,0.183,-0.183,1
2026-05-14T18:00:15.108,1.867,22403942,1033,25.559,-0.00049,-0.11182,-0.97119,-1.971190,-19.330770,-0.061,0.122,-0.122,1
2026-05-14T18:00:15.131,1.890,22430226,1034,25.543,-0.00049,-0.10986,-0.97070,-1.970700,-19.325965,-0.061,0.183,-0.183,1
2026-05-14T18:00:15.155,1.915,22450211,1035,25.543,-0.00098,-0.11084,-0.96973,-1.969730,-19.316453,-0.061,0.183,-0.183,1
2026-05-14T18:00:15.168,1.927,22465956,1036,25.543,-0.00049,-0.10986,-0.97021,-1.970210,-19.321160,-0.061,0.183,-0.244,1
2026-05-14T18:00:15.204,1.963,22491219,1037,25.574,-0.00098,-0.10986,-0.96875,-1.968750,-19.306842,-0.122,0.122,-0.122,1
2026-05-14T18:00:15.217,1.976,22511209,1038,25.604,-0.00098,-0.11084,-0.97021,-1.970210,-19.321160,-0.122,0.122,-0.183,1
2026-05-14T18:00:15.229,1.988,22525967,1039,25.574,0.00098,-0.11084,-0.96924,-1.969240,-19.311647,-0.122,0.183,-0.183,1
2026-05-14T18:00:15.254,2.013,22552226,1040,25.574,-0.00098,-0.10986,-0.97070,-1.970700,-19.325965,-0.061,0.183,-0.183,1
2026-05-14T18:00:15.279,2.038,22572219,1041,25.513,-0.00049,-0.10986,-0.96924,-1.969240,-19.311647,-0.122,0.244,-0.183,1
2026-05-14T18:00:15.291,2.050,22587969,1042,25.543,0.00098,-0.11035,-0.97217,-1.972170,-19.340381,-0.061,0.122,-0.122,1
2026-05-14T18:00:15.325,2.085,22613219,1043,25.589,-0.00146,-0.10986,-0.96875,-1.968750,-19.306842,-0.061,0.183,-0.183,1
2026-05-14T18:00:15.339,2.098,22633210,1044,25.543,-0.00195,-0.10986,-0.96924,-1.969240,-19.311647,-0.122,0.122,-0.122,1
2026-05-14T18:00:15.350,2.110,22647942,1045,25.574,0.00000,-0.11035,-0.96924,-1.969240,-19.311647,-0.061,0.183,-0.183,1
2026-05-14T18:00:15.410,2.169,22674203,1046,25.559,-0.00049,-0.11133,-0.97070,-1.970700,-19.325965,-0.122,0.183,-0.122,1
2026-05-14T18:00:15.411,2.170,22694211,1047,25.559,0.00000,-0.10938,-0.97119,-1.971190,-19.330770,-0.061,0.183,-0.183,1
2026-05-14T18:00:15.417,2.176,22709931,1048,25.543,-0.00098,-0.11035,-0.97070,-1.970700,-19.325965,-0.061,0.183,-0.183,1
2026-05-14T18:00:15.438,2.197,22735209,1049,25.574,-0.00049,-0.10938,-0.97217,-1.972170,-19.340381,-0.122,0.183,-0.183,1
2026-05-14T18:00:15.462,2.221,22755210,1050,25.543,0.00098,-0.10938,-0.96973,-1.969730,-19.316453,-0.061,0.183,-0.183,1
2026-05-14T18:00:15.475,2.234,22770944,1051,25.528,0.00049,-0.11084,-0.97021,-1.970210,-19.321160,-0.061,0.183,-0.183,1
2026-05-14T18:00:15.500,2.259,22796220,1052,25.574,0.00049,-0.11133,-0.97119,-1.971190,-19.330770,-0.061,0.183,-0.183,1
2026-05-14T18:00:15.525,2.284,22816209,1053,25.589,-0.00049,-0.11084,-0.96924,-1.969240,-19.311647,-0.122,0.183,-0.183,1
2026-05-14T18:00:15.538,2.297,22831948,1054,25.559,-0.00098,-0.11084,-0.97119,-1.971190,-19.330770,-0.122,0.122,-0.122,1
2026-05-14T18:00:15.562,2.322,22857212,1055,25.543,0.00098,-0.11035,-0.97070,-1.970700,-19.325965,-0.122,0.183,-0.122,1
2026-05-14T18:00:15.586,2.345,22877212,1056,25.574,0.00000,-0.11182,-0.97119,-1.971190,-19.330770,-0.061,0.183,-0.122,1
2026-05-14T18:00:15.599,2.358,22892937,1057,25.559,-0.00049,-0.11133,-0.97070,-1.970700,-19.325965,-0.122,0.183,-0.183,1
2026-05-14T18:00:15.624,2.383,22918209,1058,25.543,-0.00098,-0.10986,-0.97119,-1.971190,-19.330770,-0.122,0.183,-0.183,1
2026-05-14T18:00:15.649,2.408,22938212,1059,25.559,0.00000,-0.11035,-0.97168,-1.971680,-19.335576,-0.061,0.183,-0.183,1
2026-05-14T18:00:15.660,2.419,22953938,1060,25.589,0.00049,-0.11084,-0.97266,-1.972660,-19.345186,-0.122,0.183,-0.122,1
2026-05-14T18:00:15.685,2.444,22979209,1061,25.543,-0.00049,-0.11084,-0.97070,-1.970700,-19.325965,-0.122,0.183,-0.183,1
2026-05-14T18:00:15.710,2.469,22999210,1062,25.543,0.00000,-0.11084,-0.97119,-1.971190,-19.330770,-0.122,0.183,-0.122,1
2026-05-14T18:00:15.721,2.480,23014953,1063,25.574,-0.00049,-0.11084,-0.96973,-1.969730,-19.316453,-0.122,0.183,-0.183,1
2026-05-14T18:00:15.745,2.504,23040220,1064,25.543,0.00000,-0.11084,-0.97021,-1.970210,-19.321160,-0.061,0.183,-0.183,1
2026-05-14T18:00:15.767,2.526,23060218,1065,25.574,-0.00049,-0.10938,-0.97070,-1.970700,-19.325965,-0.061,0.122,-0.183,1
2026-05-14T18:00:15.779,2.539,23075977,1066,25.574,-0.00098,-0.11084,-0.97070,-1.970700,-19.325965,-0.061,0.122,-0.183,1
2026-05-14T18:00:15.805,2.564,23101211,1067,25.574,0.00049,-0.11035,-0.97070,-1.970700,-19.325965,-0.061,0.183,-0.244,1
2026-05-14T18:00:15.830,2.589,23121210,1068,25.574,0.00049,-0.11084,-0.97119,-1.971190,-19.330770,-0.122,0.122,-0.183,1
2026-05-14T18:00:15.842,2.601,23136953,1069,25.559,0.00098,-0.11133,-0.97168,-1.971680,-19.335576,-0.061,0.183,-0.183,1
2026-05-14T18:00:15.913,2.672,23162219,1070,25.543,0.00098,-0.11182,-0.97070,-1.970700,-19.325965,-0.061,0.183,-0.122,1
2026-05-14T18:00:15.913,2.673,23182211,1071,25.574,-0.00244,-0.10986,-0.96729,-1.967290,-19.292524,0.000,0.244,-0.183,1
2026-05-14T18:00:15.914,2.673,23197952,1072,25.574,-0.00049,-0.10889,-0.96289,-1.962890,-19.249375,-0.122,0.183,-0.183,1
2026-05-14T18:00:15.933,2.692,23223231,1073,25.559,-0.00244,-0.10986,-0.96289,-1.962890,-19.249375,-0.122,0.122,-0.122,1
2026-05-14T18:00:15.946,2.705,23243220,1074,25.559,0.00146,-0.11475,-0.98926,-1.989260,-19.507977,-0.183,0.061,-0.061,1
2026-05-14T18:00:15.971,2.730,23258970,1075,25.574,0.00195,-0.10986,-0.97461,-1.974610,-19.364309,-0.061,0.244,-0.122,1
2026-05-14T18:00:15.996,2.755,23284230,1076,25.543,0.00049,-0.10938,-0.97119,-1.971190,-19.330770,-0.122,0.061,-0.183,1
2026-05-14T18:00:16.009,2.768,23304219,1077,25.559,-0.00293,-0.11133,-0.97021,-1.970210,-19.321160,-0.122,0.122,-0.183,1
2026-05-14T18:00:16.021,2.781,23318959,1078,25.574,0.00146,-0.11084,-0.96924,-1.969240,-19.311647,-0.061,0.183,-0.183,1
2026-05-14T18:00:16.060,2.819,23355971,1079,25.528,0.00049,-0.11133,-0.97070,-1.970700,-19.325965,-0.061,0.183,-0.183,1
2026-05-14T18:00:16.083,2.842,23381217,1080,25.574,0.00000,-0.10986,-0.97119,-1.971190,-19.330770,-0.061,0.122,-0.183,1
2026-05-14T18:00:16.109,2.869,23401228,1081,25.574,-0.00098,-0.10986,-0.97021,-1.970210,-19.321160,-0.122,0.183,-0.122,1
2026-05-14T18:00:16.120,2.879,23416971,1082,25.589,0.00098,-0.10986,-0.97119,-1.971190,-19.330770,-0.122,0.183,-0.183,1
2026-05-14T18:00:16.145,2.904,23442218,1083,25.543,-0.00146,-0.11133,-0.97119,-1.971190,-19.330770,-0.061,0.183,-0.183,1
2026-05-14T18:00:16.167,2.926,23462221,1084,25.604,0.00000,-0.11133,-0.97119,-1.971190,-19.330770,-0.061,0.183,-0.122,1
2026-05-14T18:00:16.179,2.938,23477971,1085,25.574,-0.00146,-0.11035,-0.96973,-1.969730,-19.316453,-0.122,0.183,-0.183,1
2026-05-14T18:00:16.216,2.975,23503230,1086,25.543,-0.00098,-0.10986,-0.97070,-1.970700,-19.325965,-0.061,0.183,-0.122,1
2026-05-14T18:00:16.228,2.988,23523228,1087,25.543,-0.00098,-0.11035,-0.97021,-1.970210,-19.321160,-0.122,0.122,-0.122,1
2026-05-14T18:00:16.241,3.000,23538957,1088,25.543,0.00000,-0.11084,-0.97070,-1.970700,-19.325965,-0.122,0.122,-0.122,1
2026-05-14T18:00:16.266,3.026,23564231,1089,25.528,0.00098,-0.11084,-0.96924,-1.969240,-19.311647,-0.122,0.183,-0.122,1
2026-05-14T18:00:16.292,3.051,23584221,1090,25.559,-0.00098,-0.11035,-0.97021,-1.970210,-19.321160,-0.122,0.183,-0.183,1
2026-05-14T18:00:16.304,3.063,23599958,1091,25.589,0.00000,-0.10986,-0.97119,-1.971190,-19.330770,-0.061,0.183,-0.122,1
2026-05-14T18:00:16.327,3.086,23625230,1092,25.543,-0.00098,-0.11084,-0.97168,-1.971680,-19.335576,-0.122,0.183,-0.183,1
2026-05-14T18:00:16.352,3.112,23645228,1093,25.543,-0.00098,-0.11035,-0.97119,-1.971190,-19.330770,-0.122,0.183,-0.183,1
2026-05-14T18:00:16.367,3.126,23660957,1094,25.574,-0.00098,-0.11182,-0.97119,-1.971190,-19.330770,-0.122,0.183,-0.183,1
2026-05-14T18:00:16.418,3.177,23686231,1095,25.543,0.00000,-0.11035,-0.97119,-1.971190,-19.330770,-0.061,0.183,-0.183,1
2026-05-14T18:00:16.418,3.178,23706221,1096,25.559,-0.00049,-0.10938,-0.96875,-1.968750,-19.306842,-0.122,0.183,-0.122,1
2026-05-14T18:00:16.431,3.191,23721957,1097,25.543,-0.00098,-0.10986,-0.97119,-1.971190,-19.330770,-0.122,0.183,-0.122,1
2026-05-14T18:00:16.457,3.216,23747211,1098,25.574,0.00000,-0.11035,-0.96875,-1.968750,-19.306842,-0.061,0.122,-0.183,1
2026-05-14T18:00:16.469,3.229,23767221,1099,25.559,0.00049,-0.11230,-0.97021,-1.970210,-19.321160,-0.061,0.183,-0.183,1
2026-05-14T18:00:16.494,3.253,23782945,1100,25.574,0.00000,-0.11133,-0.97119,-1.971190,-19.330770,-0.122,0.183,-0.122,1
2026-05-14T18:00:16.519,3.279,23808201,1101,25.543,0.00000,-0.11084,-0.97070,-1.970700,-19.325965,-0.122,0.183,-0.183,1
2026-05-14T18:00:16.532,3.292,23828202,1102,25.574,-0.00146,-0.11035,-0.97070,-1.970700,-19.325965,-0.061,0.183,-0.122,1
2026-05-14T18:00:16.545,3.304,23842958,1103,25.589,0.00000,-0.11084,-0.97217,-1.972170,-19.340381,-0.061,0.244,-0.183,1
2026-05-14T18:00:16.570,3.329,23869218,1104,25.543,-0.00244,-0.10889,-0.96631,-1.966310,-19.282914,-0.122,0.183,-0.122,1
2026-05-14T18:00:16.595,3.354,23889211,1105,25.543,-0.00049,-0.10791,-0.96045,-1.960450,-19.225447,-0.122,0.122,-0.183,1
2026-05-14T18:00:16.610,3.370,23903957,1106,25.559,-0.00098,-0.11133,-0.96777,-1.967770,-19.297232,-0.183,0.122,-0.122,1
2026-05-14T18:00:16.633,3.392,23930212,1107,25.574,-0.00049,-0.11133,-0.97217,-1.972170,-19.340381,-0.061,0.183,-0.122,1
2026-05-14T18:00:16.658,3.417,23950210,1108,25.528,0.00000,-0.10938,-0.97266,-1.972660,-19.345186,-0.122,0.183,-0.183,1
2026-05-14T18:00:16.671,3.430,23965929,1109,25.574,-0.00049,-0.10938,-0.97266,-1.972660,-19.345186,-0.061,0.183,-0.183,1
2026-05-14T18:00:16.693,3.452,23991230,1110,25.543,0.00000,-0.11084,-0.97119,-1.971190,-19.330770,-0.122,0.183,-0.122,1
2026-05-14T18:00:16.718,3.478,24011220,1111,25.574,0.00000,-0.11182,-0.97119,-1.971190,-19.330770,-0.122,0.183,-0.122,1
2026-05-14T18:00:16.731,3.490,24026959,1112,25.589,0.00049,-0.10986,-0.96924,-1.969240,-19.311647,-0.061,0.183,-0.122,1
2026-05-14T18:00:16.756,3.515,24052212,1113,25.574,-0.00146,-0.11084,-0.96924,-1.969240,-19.311647,-0.122,0.122,-0.183,1
2026-05-14T18:00:16.781,3.541,24072227,1114,25.543,-0.00049,-0.10986,-0.96973,-1.969730,-19.316453,-0.061,0.183,-0.183,1
2026-05-14T18:00:16.794,3.553,24087954,1115,25.574,-0.00049,-0.11084,-0.97070,-1.970700,-19.325965,-0.122,0.183,-0.122,1
2026-05-14T18:00:16.819,3.579,24113230,1116,25.559,0.00000,-0.11035,-0.97070,-1.970700,-19.325965,-0.122,0.183,-0.244,1
2026-05-14T18:00:16.843,3.603,24133228,1117,25.559,0.00000,-0.11084,-0.97168,-1.971680,-19.335576,-0.061,0.183,-0.183,1
2026-05-14T18:00:16.913,3.672,24148972,1118,25.574,0.00000,-0.11133,-0.97217,-1.972170,-19.340381,-0.061,0.183,-0.183,1
2026-05-14T18:00:16.913,3.673,24174212,1119,25.574,-0.00098,-0.11035,-0.96973,-1.969730,-19.316453,-0.061,0.183,-0.183,1
2026-05-14T18:00:16.914,3.673,24194227,1120,25.574,0.00000,-0.10986,-0.97070,-1.970700,-19.325965,-0.061,0.183,-0.183,1
2026-05-14T18:00:16.920,3.679,24209953,1121,25.543,0.00000,-0.11133,-0.97070,-1.970700,-19.325965,-0.061,0.122,-0.183,1
2026-05-14T18:00:16.941,3.701,24235230,1122,25.589,-0.00098,-0.10986,-0.97119,-1.971190,-19.330770,-0.061,0.122,-0.183,1
2026-05-14T18:00:16.964,3.723,24255220,1123,25.559,0.00049,-0.11084,-0.96973,-1.969730,-19.316453,-0.061,0.244,-0.122,1
2026-05-14T18:00:16.975,3.735,24270959,1124,25.559,-0.00098,-0.10986,-0.96826,-1.968260,-19.302037,-0.061,0.183,-0.183,1
2026-05-14T18:00:17.000,3.759,24296232,1125,25.574,0.00000,-0.11035,-0.96826,-1.968260,-19.302037,-0.061,0.183,-0.183,1
2026-05-14T18:00:17.025,3.785,24316227,1126,25.589,-0.00195,-0.11035,-0.97168,-1.971680,-19.335576,-0.122,0.183,-0.183,1
2026-05-14T18:00:17.038,3.797,24331967,1127,25.589,-0.00049,-0.10938,-0.97119,-1.971190,-19.330770,-0.122,0.122,-0.122,1
2026-05-14T18:00:17.076,3.835,24368954,1128,25.574,-0.00049,-0.10986,-0.97021,-1.970210,-19.321160,-0.122,0.183,-0.122,1
2026-05-14T18:00:17.101,3.861,24394219,1129,25.543,0.00098,-0.10986,-0.97021,-1.970210,-19.321160,-0.061,0.183,-0.183,1
2026-05-14T18:00:17.126,3.885,24414220,1130,25.543,-0.00098,-0.10986,-0.97021,-1.970210,-19.321160,-0.061,0.183,-0.183,1
2026-05-14T18:00:17.139,3.898,24428954,1131,25.574,-0.00049,-0.11035,-0.96973,-1.969730,-19.316453,-0.061,0.244,-0.122,1
2026-05-14T18:00:17.164,3.923,24455226,1132,25.574,-0.00146,-0.10986,-0.97070,-1.970700,-19.325965,-0.061,0.122,-0.183,1
2026-05-14T18:00:17.176,3.936,24475219,1133,25.574,0.00098,-0.11084,-0.97168,-1.971680,-19.335576,-0.122,0.183,-0.183,1
2026-05-14T18:00:17.199,3.959,24490956,1134,25.574,-0.00098,-0.10938,-0.97070,-1.970700,-19.325965,-0.061,0.183,-0.122,1
2026-05-14T18:00:17.224,3.983,24516210,1135,25.574,-0.00049,-0.11035,-0.97119,-1.971190,-19.330770,-0.061,0.183,-0.122,1
2026-05-14T18:00:17.237,3.996,24536209,1136,25.559,-0.00146,-0.10986,-0.97070,-1.970700,-19.325965,-0.122,0.183,-0.183,1
2026-05-14T18:00:17.259,4.018,24550954,1137,25.959,-0.00049,-0.00049,-0.00049,-1.000490,-9.811455,-0.061,-0.061,-0.061,1
2026-05-14T18:00:17.284,4.043,24577226,1138,25.574,0.00000,-0.10986,-0.97119,-1.971190,-19.330770,-0.061,0.183,-0.122,1
2026-05-14T18:00:17.309,4.068,24597221,1139,25.543,-0.00049,-0.11084,-0.97070,-1.970700,-19.325965,-0.061,0.183,-0.122,1
2026-05-14T18:00:17.320,4.079,24612969,1140,25.574,-0.00049,-0.11133,-0.97070,-1.970700,-19.325965,-0.061,0.183,-0.183,1
2026-05-14T18:00:17.345,4.104,24638228,1141,25.559,-0.00098,-0.11182,-0.97168,-1.971680,-19.335576,-0.122,0.183,-0.122,1
2026-05-14T18:00:17.413,4.172,24658220,1142,25.574,-0.00098,-0.10986,-0.97070,-1.970700,-19.325965,-0.061,0.183,-0.183,1
2026-05-14T18:00:17.413,4.173,24672954,1143,25.543,0.00049,-0.11133,-0.97119,-1.971190,-19.330770,-0.122,0.122,-0.122,1
2026-05-14T18:00:17.414,4.173,24699226,1144,25.543,-0.00098,-0.11084,-0.97021,-1.970210,-19.321160,-0.122,0.183,-0.183,1
2026-05-14T18:00:17.429,4.188,24719221,1145,25.574,-0.00146,-0.11035,-0.97119,-1.971190,-19.330770,-0.122,0.183,-0.122,1
2026-05-14T18:00:17.441,4.201,24734957,1146,25.574,-0.00049,-0.11035,-0.97119,-1.971190,-19.330770,-0.122,0.183,-0.122,1
2026-05-14T18:00:17.465,4.225,24760233,1147,25.574,0.00049,-0.10938,-0.97168,-1.971680,-19.335576,-0.122,0.122,-0.122,1
2026-05-14T18:00:17.489,4.248,24780220,1148,25.559,-0.00098,-0.10986,-0.96973,-1.969730,-19.316453,-0.122,0.183,-0.122,1
2026-05-14T18:00:17.501,4.261,24794954,1149,25.543,-0.00049,-0.11084,-0.97070,-1.970700,-19.325965,-0.061,0.183,-0.122,1
2026-05-14T18:00:17.527,4.286,24821231,1150,25.559,0.00000,-0.11035,-0.97021,-1.970210,-19.321160,-0.122,0.183,-0.122,1
2026-05-14T18:00:17.552,4.311,24841221,1151,25.543,-0.00049,-0.11035,-0.97070,-1.970700,-19.325965,-0.061,0.183,-0.122,1
2026-05-14T18:00:17.565,4.324,24856957,1152,25.589,-0.00049,-0.11084,-0.97070,-1.970700,-19.325965,-0.061,0.183,-0.183,1
2026-05-14T18:00:17.590,4.349,24882233,1153,25.559,0.00000,-0.11133,-0.97119,-1.971190,-19.330770,-0.061,0.122,-0.122,1
2026-05-14T18:00:17.602,4.361,24902220,1154,25.559,0.00000,-0.10986,-0.97021,-1.970210,-19.321160,-0.061,0.122,-0.183,1
2026-05-14T18:00:17.627,4.386,24916954,1155,25.559,-0.00049,-0.11035,-0.96875,-1.968750,-19.306842,-0.061,0.183,-0.183,1
2026-05-14T18:00:17.651,4.411,24943219,1156,25.589,-0.00049,-0.11035,-0.97021,-1.970210,-19.321160,-0.122,0.183,-0.122,1
2026-05-14T18:00:17.664,4.423,24963219,1157,25.619,-0.00049,-0.11035,-0.97119,-1.971190,-19.330770,-0.122,0.183,-0.122,1
2026-05-14T18:00:17.686,4.446,24978970,1158,25.574,-0.00049,-0.11133,-0.97070,-1.970700,-19.325965,-0.061,0.183,-0.122,1
2026-05-14T18:00:17.712,4.471,25004228,1159,25.574,0.00000,-0.11035,-0.97119,-1.971190,-19.330770,-0.061,0.183,-0.183,1
2026-05-14T18:00:17.736,4.496,25024220,1160,25.574,0.00000,-0.10986,-0.97119,-1.971190,-19.330770,-0.122,0.183,-0.122,1
2026-05-14T18:00:17.749,4.508,25038955,1161,25.559,-0.00146,-0.11084,-0.97070,-1.970700,-19.325965,-0.061,0.183,-0.183,1
2026-05-14T18:00:17.774,4.533,25065231,1162,25.574,-0.00049,-0.10986,-0.97070,-1.970700,-19.325965,-0.061,0.122,-0.183,1
2026-05-14T18:00:17.797,4.556,25085221,1163,25.574,0.00000,-0.11035,-0.97119,-1.971190,-19.330770,-0.122,0.183,-0.122,1
2026-05-14T18:00:17.807,4.567,25100956,1164,25.543,-0.00195,-0.10986,-0.97021,-1.970210,-19.321160,-0.061,0.183,-0.122,1
2026-05-14T18:00:17.831,4.590,25126219,1165,25.574,-0.00098,-0.11230,-0.97070,-1.970700,-19.325965,-0.122,0.183,-0.122,1
2026-05-14T18:00:17.852,4.612,25146220,1166,25.589,0.00000,-0.11084,-0.97119,-1.971190,-19.330770,-0.122,0.183,-0.122,1
2026-05-14T18:00:17.905,4.665,25160942,1167,25.589,0.00000,-0.11084,-0.97119,-1.971190,-19.330770,-0.122,0.183,-0.122,1
2026-05-14T18:00:17.915,4.675,25187203,1168,25.559,0.00000,-0.11084,-0.97266,-1.972660,-19.345186,-0.122,0.183,-0.122,1
2026-05-14T18:00:17.920,4.679,25207201,1169,25.574,0.00000,-0.11035,-0.97119,-1.971190,-19.330770,-0.122,0.183,-0.122,1
2026-05-14T18:00:17.931,4.690,25221946,1170,25.574,0.00000,-0.11035,-0.97119,-1.971190,-19.330770,-0.122,0.183,-0.122,1
2026-05-14T18:00:17.955,4.714,25247226,1171,25.543,-0.00049,-0.11084,-0.97119,-1.971190,-19.330770,-0.122,0.183,-0.183,1
2026-05-14T18:00:17.968,4.727,25267211,1172,25.543,-0.00049,-0.11084,-0.97119,-1.971190,-19.330770,-0.122,0.183,-0.183,1
2026-05-14T18:00:17.993,4.752,25282943,1173,25.574,0.00000,-0.11133,-0.97119,-1.971190,-19.330770,-0.061,0.183,-0.122,1
2026-05-14T18:00:18.016,4.776,25308207,1174,25.574,0.00000,-0.11182,-0.96973,-1.969730,-19.316453,-0.061,0.183,-0.183,1
2026-05-14T18:00:18.040,4.800,25328212,1175,25.574,0.00049,-0.11084,-0.97119,-1.971190,-19.330770,-0.061,0.183,-0.122,1
2026-05-14T18:00:18.053,4.812,25343940,1176,25.574,0.00049,-0.11084,-0.97119,-1.971190,-19.330770,-0.061,0.183,-0.122,1
2026-05-14T18:00:18.090,4.850,25380956,1177,25.574,0.00049,-0.11084,-0.97070,-1.970700,-19.325965,-0.122,0.183,-0.122,1
2026-05-14T18:00:18.116,4.875,25406213,1178,25.559,-0.00049,-0.11035,-0.97119,-1.971190,-19.330770,-0.122,0.183,-0.122,1
2026-05-14T18:00:18.128,4.887,25426213,1179,25.574,-0.00049,-0.11084,-0.97168,-1.971680,-19.335576,-0.122,0.122,-0.122,1
2026-05-14T18:00:18.153,4.912,25441969,1180,25.574,0.00049,-0.10938,-0.97119,-1.971190,-19.330770,-0.061,0.122,-0.183,1
2026-05-14T18:00:18.178,4.937,25467231,1181,25.559,0.00049,-0.11182,-0.97021,-1.970210,-19.321160,-0.122,0.183,-0.183,1
2026-05-14T18:00:18.191,4.950,25487221,1182,25.543,-0.00049,-0.10986,-0.97070,-1.970700,-19.325965,-0.122,0.183,-0.183,1
2026-05-14T18:00:18.203,4.963,25502956,1183,25.559,0.00000,-0.11035,-0.97070,-1.970700,-19.325965,-0.122,0.122,-0.183,1
2026-05-14T18:00:18.240,5.000,25528230,1184,25.574,0.00000,-0.10938,-0.97070,-1.970700,-19.325965,-0.061,0.183,-0.183,1
2026-05-14T18:00:18.253,5.013,25548228,1185,25.574,-0.00049,-0.11133,-0.97119,-1.971190,-19.330770,-0.122,0.183,-0.061,1
2026-05-14T18:00:18.266,5.026,25563956,1186,25.574,-0.00049,-0.11035,-0.97070,-1.970700,-19.325965,-0.061,0.183,-0.122,1
2026-05-14T18:00:18.291,5.051,25589231,1187,25.574,-0.00098,-0.11035,-0.97119,-1.971190,-19.330770,-0.061,0.122,-0.244,1
2026-05-14T18:00:18.317,5.076,25609221,1188,25.574,0.00049,-0.11133,-0.97070,-1.970700,-19.325965,-0.061,0.183,-0.183,1
2026-05-14T18:00:18.327,5.086,25624955,1189,25.604,0.00000,-0.11035,-0.97070,-1.970700,-19.325965,-0.061,0.183,-0.183,1
2026-05-14T18:00:18.352,5.112,25650231,1190,25.574,0.00000,-0.11084,-0.97119,-1.971190,-19.330770,-0.122,0.183,-0.122,1
2026-05-14T18:00:18.417,5.176,25670228,1191,25.574,-0.00098,-0.11035,-0.97070,-1.970700,-19.325965,-0.122,0.183,-0.122,1
2026-05-14T18:00:18.417,5.177,25685956,1192,25.589,-0.00098,-0.11035,-0.96973,-1.969730,-19.316453,-0.122,0.122,-0.183,1
2026-05-14T18:00:18.423,5.182,25711231,1193,25.589,-0.00098,-0.11133,-0.97119,-1.971190,-19.330770,-0.061,0.122,-0.183,1
2026-05-14T18:00:18.434,5.194,25731221,1194,25.574,-0.00342,-0.09570,-0.90332,-1.903320,-18.665193,0.244,0.610,-0.244,1
2026-05-14T18:00:18.457,5.216,25746956,1195,25.574,-0.00342,-0.10986,-0.96582,-1.965820,-19.278109,0.244,0.427,-0.183,1
2026-05-14T18:00:18.482,5.241,25772205,1196,25.543,-0.00049,-0.10840,-0.96533,-1.965330,-19.273303,-0.122,0.183,-0.183,1
2026-05-14T18:00:18.494,5.253,25792209,1197,25.574,0.00049,-0.10986,-0.96533,-1.965330,-19.273303,-0.122,0.122,-0.122,1
2026-05-14T18:00:18.516,5.275,25807951,1198,25.574,0.00049,-0.10986,-0.96533,-1.965330,-19.273303,-0.122,0.122,-0.122,1
2026-05-14T18:00:18.541,5.300,25833211,1199,25.543,-0.00098,-0.10938,-0.96924,-1.969240,-19.311647,-0.122,0.183,-0.183,1
2026-05-14T18:00:18.553,5.313,25853210,1200,25.574,-0.00293,-0.10645,-0.94873,-1.948730,-19.110513,-0.244,0.122,-0.183,1
2026-05-14T18:00:18.576,5.336,25868946,1201,25.574,-0.00293,-0.10645,-0.94873,-1.948730,-19.110513,-0.244,0.122,-0.183,1
2026-05-14T18:00:18.602,5.361,25894212,1202,25.589,-0.00195,-0.10986,-0.96631,-1.966310,-19.282914,-0.122,0.183,-0.122,1
2026-05-14T18:00:18.627,5.386,25914209,1203,25.559,-0.00098,-0.11084,-0.97168,-1.971680,-19.335576,-0.122,0.122,-0.122,1
2026-05-14T18:00:18.640,5.399,25929941,1204,25.559,-0.00146,-0.00049,-0.00049,-1.000490,-9.811455,-0.061,-0.061,-0.061,1
2026-05-14T18:00:18.663,5.422,25955220,1205,25.574,0.00049,-0.11133,-0.97217,-1.972170,-19.340381,-0.061,0.183,-0.183,1
2026-05-14T18:00:18.688,5.447,25975210,1206,25.559,-0.00049,-0.11035,-0.97217,-1.972170,-19.340381,-0.122,0.122,-0.183,1
2026-05-14T18:00:18.700,5.460,25990946,1207,25.559,-0.00049,-0.11035,-0.97217,-1.972170,-19.340381,-0.122,0.122,-0.183,1
2026-05-14T18:00:18.725,5.485,26016212,1208,25.559,-0.00098,-0.11133,-0.97021,-1.970210,-19.321160,-0.061,0.183,-0.183,1
2026-05-14T18:00:18.738,5.497,26036209,1209,25.589,0.00000,-0.11182,-0.97168,-1.971680,-19.335576,-0.061,0.183,-0.122,1
2026-05-14T18:00:18.763,5.522,26051939,1210,25.589,0.00000,-0.11182,-0.97168,-1.971680,-19.335576,-0.061,0.183,-0.122,1
2026-05-14T18:00:18.788,5.547,26077200,1211,25.574,-0.00049,-0.11035,-0.96973,-1.969730,-19.316453,-0.061,0.183,-0.183,1
2026-05-14T18:00:18.800,5.559,26097210,1212,25.543,0.00000,-0.10986,-0.97070,-1.970700,-19.325965,-0.061,0.183,-0.183,1
2026-05-14T18:00:18.823,5.583,26112939,1213,25.543,0.00000,-0.10986,-0.97070,-1.970700,-19.325965,-0.061,0.183,-0.183,1
2026-05-14T18:00:18.847,5.607,26138209,1214,25.574,-0.00049,-0.11084,-0.97070,-1.970700,-19.325965,-0.061,0.183,-0.122,1
2026-05-14T18:00:18.908,5.667,26158212,1215,25.574,0.00000,-0.11084,-0.97021,-1.970210,-19.321160,-0.122,0.183,-0.122,1
2026-05-14T18:00:18.909,5.668,26173943,1216,25.574,0.00000,-0.11084,-0.97021,-1.970210,-19.321160,-0.122,0.183,-0.122,1
2026-05-14T18:00:18.909,5.668,26199209,1217,25.574,0.00000,-0.11133,-0.97119,-1.971190,-19.330770,-0.122,0.183,-0.183,1
2026-05-14T18:00:18.919,5.678,26219210,1218,25.574,0.00000,-0.11133,-0.97119,-1.971190,-19.330770,-0.061,0.183,-0.183,1
2026-05-14T18:00:18.942,5.701,26234940,1219,25.574,0.00000,-0.11133,-0.97119,-1.971190,-19.330770,-0.061,0.183,-0.183,1
2026-05-14T18:00:18.967,5.727,26260212,1220,25.589,-0.00049,-0.11133,-0.97168,-1.971680,-19.335576,-0.122,0.183,-0.183,1
2026-05-14T18:00:18.992,5.752,26280228,1221,25.604,0.00000,-0.10986,-0.96973,-1.969730,-19.316453,-0.061,0.183,-0.183,1
2026-05-14T18:00:19.005,5.764,26294943,1222,25.604,0.00000,-0.10986,-0.96973,-1.969730,-19.316453,-0.061,0.183,-0.183,1
2026-05-14T18:00:19.030,5.790,26321209,1223,25.604,0.00000,-0.11035,-0.97119,-1.971190,-19.330770,-0.061,0.183,-0.122,1
2026-05-14T18:00:19.043,5.802,26341232,1224,25.619,0.00098,-0.11084,-0.97119,-1.971190,-19.330770,-0.122,0.183,-0.183,1
2026-05-14T18:00:19.068,5.827,26355955,1225,25.619,0.00098,-0.11084,-0.97119,-1.971190,-19.330770,-0.122,0.183,-0.183,1
2026-05-14T18:00:19.109,5.869,26391973,1226,25.559,0.00000,-0.11084,-0.97168,-1.971680,-19.335576,-0.122,0.183,-0.122,1
2026-05-14T18:00:19.119,5.878,26418231,1227,25.589,0.00000,-0.10938,-0.97021,-1.970210,-19.321160,-0.061,0.183,-0.183,1
2026-05-14T18:00:19.143,5.903,26438231,1228,25.589,0.00000,-0.10938,-0.97021,-1.970210,-19.321160,-0.061,0.183,-0.183,1
2026-05-14T18:00:19.156,5.915,26453951,1229,25.574,-0.00049,-0.11084,-0.97266,-1.972660,-19.345186,-0.061,0.122,-0.183,1
2026-05-14T18:00:19.181,5.941,26479234,1230,25.589,0.00000,-0.11084,-0.97266,-1.972660,-19.345186,-0.061,0.183,-0.183,1
2026-05-14T18:00:19.206,5.966,26499216,1231,25.574,0.00049,-0.11084,-0.97070,-1.970700,-19.325965,-0.122,0.183,-0.183,1
2026-05-14T18:00:19.219,5.978,26514960,1232,25.574,0.00049,-0.11084,-0.97070,-1.970700,-19.325965,-0.122,0.183,-0.183,1
2026-05-14T18:00:19.244,6.003,26540205,1233,25.574,-0.00146,-0.11084,-0.97119,-1.971190,-19.330770,-0.061,0.183,-0.122,1
2026-05-14T18:00:19.267,6.026,26560212,1234,25.543,-0.00049,-0.10986,-0.97070,-1.970700,-19.325965,-0.122,0.183,-0.122,1
2026-05-14T18:00:19.279,6.038,26575938,1235,25.543,-0.00049,-0.10986,-0.97070,-1.970700,-19.325965,-0.122,0.183,-0.122,1
2026-05-14T18:00:19.304,6.064,26601220,1236,25.574,0.00000,-0.10938,-0.97021,-1.970210,-19.321160,-0.061,0.183,-0.183,1
2026-05-14T18:00:19.330,6.089,26621209,1237,25.574,-0.00049,-0.10986,-0.97070,-1.970700,-19.325965,-0.061,0.183,-0.183,1
2026-05-14T18:00:19.342,6.101,26636947,1238,25.574,-0.00049,-0.10986,-0.97070,-1.970700,-19.325965,-0.061,0.183,-0.183,1
2026-05-14T18:00:19.419,6.178,26662212,1239,25.574,-0.00049,-0.11035,-0.97070,-1.970700,-19.325965,-0.061,0.183,-0.183,1
2026-05-14T18:00:19.419,6.179,26682212,1240,25.559,-0.00049,-0.11084,-0.97070,-1.970700,-19.325965,-0.061,0.183,-0.122,1
2026-05-14T18:00:19.433,6.193,26723209,1241,25.574,-0.00098,-0.11182,-0.97021,-1.970210,-19.321160,-0.061,0.183,-0.122,2
2026-05-14T18:00:19.446,6.205,26743215,1242,25.574,-0.00049,-0.11035,-0.97070,-1.970700,-19.325965,-0.122,0.183,-0.122,2
2026-05-14T18:00:19.469,6.228,26757943,1243,25.574,-0.00049,-0.11035,-0.97070,-1.970700,-19.325965,-0.122,0.183,-0.122,2
2026-05-14T18:00:19.491,6.250,26784219,1244,25.574,-0.00049,-0.11035,-0.97217,-1.972170,-19.340381,-0.061,0.122,-0.183,2
2026-05-14T18:00:19.515,6.275,26804209,1245,25.559,-0.00049,-0.11035,-0.97168,-1.971680,-19.335576,-0.122,0.183,-0.122,2
2026-05-14T18:00:19.528,6.288,26819960,1246,25.559,-0.00049,-0.11035,-0.97168,-1.971680,-19.335576,-0.122,0.183,-0.122,2
2026-05-14T18:00:19.554,6.313,26845203,1247,25.604,0.00000,-0.11035,-0.97217,-1.972170,-19.340381,-0.061,-0.061,-0.061,2
2026-05-14T18:00:19.566,6.325,26865212,1248,25.604,0.00000,-0.11084,-0.97021,-1.970210,-19.321160,-0.061,0.122,-0.183,2
2026-05-14T18:00:19.591,6.350,26880966,1249,25.604,0.00000,-0.11084,-0.97021,-1.970210,-19.321160,-0.061,0.122,-0.183,2
2026-05-14T18:00:19.616,6.375,26906214,1250,25.574,-0.00049,-0.11084,-0.96924,-1.969240,-19.311647,-0.122,0.183,-0.183,2
2026-05-14T18:00:19.629,6.388,26926220,1251,25.559,0.00000,-0.10986,-0.97021,-1.970210,-19.321160,-0.122,0.183,-0.122,2
2026-05-14T18:00:19.654,6.413,26941959,1252,25.559,0.00000,-0.10986,-0.97021,-1.970210,-19.321160,-0.122,0.183,-0.122,2
2026-05-14T18:00:19.679,6.438,26967232,1253,25.543,-0.00098,-0.11084,-0.97070,-1.970700,-19.325965,-0.061,0.122,-0.122,2
2026-05-14T18:00:19.692,6.451,26987221,1254,25.574,0.00000,-0.11084,-0.97070,-1.970700,-19.325965,-0.061,-0.061,-0.061,2
2026-05-14T18:00:19.705,6.464,27001972,1255,25.574,0.00000,-0.11084,-0.97070,-1.970700,-19.325965,-0.061,0.183,-0.122,2
2026-05-14T18:00:19.730,6.489,27028233,1256,25.589,0.00000,-0.11182,-0.97412,-1.974120,-19.359504,-0.122,0.183,-0.183,2
2026-05-14T18:00:19.755,6.514,27048220,1257,25.604,0.00146,-0.10938,-0.97217,-1.972170,-19.340381,0.000,0.183,-0.183,2
2026-05-14T18:00:19.767,6.527,27063961,1258,25.604,0.00146,-0.10938,-0.97217,-1.972170,-19.340381,0.000,0.183,-0.183,2
2026-05-14T18:00:19.793,6.552,27089219,1259,25.574,-0.00049,-0.11084,-0.97119,-1.971190,-19.330770,-0.061,0.183,-0.122,2
2026-05-14T18:00:19.818,6.577,27109221,1260,25.589,0.00049,-0.10986,-0.97021,-1.970210,-19.321160,-0.122,0.122,-0.122,2
2026-05-14T18:00:19.830,6.590,27124958,1261,25.589,-0.00049,-0.11182,-0.96973,-1.969730,-19.316453,-0.122,0.183,-0.183,2
2026-05-14T18:00:19.856,6.615,27150233,1262,25.574,0.00000,-0.11084,-0.96973,-1.969730,-19.316453,-0.061,0.122,-0.244,2
2026-05-14T18:00:19.924,6.684,27170220,1263,25.604,0.00000,-0.10986,-0.97070,-1.970700,-19.325965,-0.122,0.183,-0.122,2
2026-05-14T18:00:19.925,6.684,27184956,1264,25.604,0.00000,-0.10986,-0.97070,-1.970700,-19.325965,-0.122,0.183,-0.122,2
2026-05-14T18:00:19.925,6.685,27211233,1265,25.589,-0.00098,-0.11133,-0.97119,-1.971190,-19.330770,-0.061,0.183,-0.183,2
2026-05-14T18:00:19.936,6.695,27231221,1266,25.574,0.00000,-0.11084,-0.97021,-1.970210,-19.321160,-0.061,0.183,-0.183,2
2026-05-14T18:00:19.948,6.708,27246957,1267,25.589,0.00000,-0.10986,-0.96875,-1.968750,-19.306842,0.000,0.183,-0.183,2
2026-05-14T18:00:19.972,6.732,27272210,1268,25.574,0.00049,-0.11133,-0.97168,-1.971680,-19.335576,-0.061,0.122,-0.183,2
2026-05-14T18:00:19.998,6.757,27292232,1269,25.604,0.00000,-0.11133,-0.97021,-1.970210,-19.321160,-0.061,0.183,-0.183,2
2026-05-14T18:00:20.010,6.770,27306942,1270,25.589,-0.00049,-0.11035,-0.97070,-1.970700,-19.325965,-0.122,0.183,-0.183,2
2026-05-14T18:00:20.034,6.794,27333220,1271,25.574,0.00000,-0.10986,-0.97070,-1.970700,-19.325965,-0.061,0.183,-0.122,2
2026-05-14T18:00:20.058,6.817,27353210,1272,25.589,0.00000,-0.11035,-0.97266,-1.972660,-19.345186,-0.122,0.183,-0.183,2
2026-05-14T18:00:20.094,6.853,27389949,1273,25.559,0.00049,-0.11182,-0.97070,-1.970700,-19.325965,-0.122,0.122,-0.183,2
2026-05-14T18:00:20.119,6.879,27415211,1274,25.574,0.00000,-0.11182,-0.97266,-1.972660,-19.345186,-0.061,0.183,-0.183,2
2026-05-14T18:00:20.145,6.904,27435213,1275,25.589,0.00000,-0.11133,-0.97168,-1.971680,-19.335576,-0.061,0.183,-0.122,2
2026-05-14T18:00:20.157,6.916,27450939,1276,25.589,-0.00049,-0.11035,-0.97168,-1.971680,-19.335576,-0.122,0.122,-0.183,2
2026-05-14T18:00:20.182,6.941,27476207,1277,25.604,-0.00049,-0.11035,-0.97070,-1.970700,-19.325965,-0.122,0.183,-0.183,2
2026-05-14T18:00:20.207,6.966,27496211,1278,25.589,0.00000,-0.11084,-0.97021,-1.970210,-19.321160,-0.122,0.183,-0.183,2
2026-05-14T18:00:20.220,6.979,27511933,1279,25.604,0.00000,-0.11035,-0.97070,-1.970700,-19.325965,-0.061,0.183,-0.183,2
2026-05-14T18:00:20.244,7.003,27537209,1280,25.574,0.00098,-0.10938,-0.97070,-1.970700,-19.325965,-0.061,0.183,-0.122,2
2026-05-14T18:00:20.268,7.028,27557212,1281,25.604,-0.00049,-0.11084,-0.97021,-1.970210,-19.321160,-0.061,0.183,-0.122,2
2026-05-14T18:00:20.282,7.041,27571943,1282,25.604,-0.00049,-0.11035,-0.97119,-1.971190,-19.330770,-0.061,0.183,-0.122,2
2026-05-14T18:00:20.307,7.066,27598217,1283,25.574,0.00049,-0.11133,-0.97119,-1.971190,-19.330770,-0.122,0.183,-0.244,2
2026-05-14T18:00:20.319,7.079,27618212,1284,25.559,-0.00098,-0.11084,-0.97070,-1.970700,-19.325965,-0.122,0.183,-0.183,2
2026-05-14T18:00:20.344,7.104,27633945,1285,25.574,0.00098,-0.10986,-0.97119,-1.971190,-19.330770,-0.122,0.122,-0.183,2
2026-05-14T18:00:20.362,7.121,27659211,1286,25.604,-0.00195,-0.11084,-0.97021,-1.970210,-19.321160,-0.061,0.183,-0.244,2
2026-05-14T18:00:20.414,7.174,27679213,1287,25.604,0.00000,-0.10986,-0.97070,-1.970700,-19.325965,-0.122,0.183,-0.122,2
2026-05-14T18:00:20.415,7.174,27694940,1288,25.589,0.00000,-0.11279,-0.96973,-1.969730,-19.316453,-0.122,0.122,-0.122,2
2026-05-14T18:00:20.428,7.188,27720208,1289,25.604,0.00049,-0.11133,-0.97070,-1.970700,-19.325965,-0.061,0.183,-0.183,2
2026-05-14T18:00:20.451,7.211,27740211,1290,25.574,-0.00049,-0.11035,-0.97070,-1.970700,-19.325965,-0.122,0.183,-0.122,2
2026-05-14T18:00:20.464,7.223,27754959,1291,25.574,-0.00098,-0.10986,-0.97070,-1.970700,-19.325965,-0.122,0.122,-0.183,2
2026-05-14T18:00:20.489,7.248,27781231,1292,25.574,-0.00049,-0.11084,-0.97021,-1.970210,-19.321160,-0.122,0.183,-0.183,2
2026-05-14T18:00:20.513,7.272,27801220,1293,25.574,-0.00049,-0.11035,-0.97021,-1.970210,-19.321160,-0.122,0.183,-0.122,2
2026-05-14T18:00:20.525,7.285,27816970,1294,25.574,-0.00098,-0.11133,-0.97070,-1.970700,-19.325965,-0.122,0.183,-0.122,2
2026-05-14T18:00:20.551,7.310,27842231,1295,25.574,0.00000,-0.10986,-0.97119,-1.971190,-19.330770,-0.122,0.183,-0.183,2
2026-05-14T18:00:20.563,7.323,27862221,1296,25.589,-0.00049,-0.10889,-0.97070,-1.970700,-19.325965,-0.061,0.183,-0.244,2
2026-05-14T18:00:20.588,7.348,27876959,1297,25.604,0.00000,-0.10938,-0.97021,-1.970210,-19.321160,-0.122,0.183,-0.183,2
2026-05-14T18:00:20.613,7.373,27903231,1298,25.619,-0.00049,-0.11133,-0.96973,-1.969730,-19.316453,-0.061,0.183,-0.183,2
2026-05-14T18:00:20.626,7.386,27923220,1299,25.604,0.00098,-0.11182,-0.96924,-1.969240,-19.311647,-0.061,0.122,-0.183,2
2026-05-14T18:00:20.651,7.410,27938957,1300,25.574,0.00000,-0.10938,-0.97070,-1.970700,-19.325965,-0.122,0.183,-0.183,2
2026-05-14T18:00:20.676,7.436,27964230,1301,25.574,-0.00049,-0.10986,-0.97021,-1.970210,-19.321160,-0.122,0.183,-0.183,2
2026-05-14T18:00:20.689,7.449,27984221,1302,25.589,-0.00049,-0.11035,-0.97070,-1.970700,-19.325965,-0.061,0.183,-0.183,2
2026-05-14T18:00:20.702,7.461,27998958,1303,25.574,0.00049,-0.11084,-0.97070,-1.970700,-19.325965,-0.061,0.183,-0.183,2
2026-05-14T18:00:20.727,7.486,28025218,1304,25.589,0.00049,-0.11133,-0.97070,-1.970700,-19.325965,-0.122,0.183,-0.183,2
2026-05-14T18:00:20.752,7.512,28045220,1305,25.559,0.00049,-0.11084,-0.97070,-1.970700,-19.325965,-0.061,0.183,-0.183,2
2026-05-14T18:00:20.762,7.522,28060970,1306,25.574,-0.00049,-0.10938,-0.97119,-1.971190,-19.330770,-0.061,0.183,-0.122,2
2026-05-14T18:00:20.788,7.547,28086219,1307,25.574,-0.00146,-0.10840,-0.97070,-1.970700,-19.325965,-0.122,0.183,-0.183,2
2026-05-14T18:00:20.813,7.573,28106222,1308,25.634,-0.00098,-0.11035,-0.97119,-1.971190,-19.330770,-0.061,0.183,-0.122,2
2026-05-14T18:00:20.825,7.585,28120972,1309,25.604,0.00000,-0.11084,-0.97021,-1.970210,-19.321160,-0.122,0.183,-0.183,2
2026-05-14T18:00:20.850,7.610,28147219,1310,25.589,0.00000,-0.11084,-0.96924,-1.969240,-19.311647,-0.061,0.122,-0.183,2
2026-05-14T18:00:20.917,7.676,28167220,1311,25.574,0.00098,-0.11035,-0.96973,-1.969730,-19.316453,-0.122,0.183,-0.183,2
2026-05-14T18:00:20.917,7.676,28182957,1312,25.604,-0.00146,-0.11035,-0.97119,-1.971190,-19.330770,-0.122,0.183,-0.183,2
2026-05-14T18:00:20.917,7.677,28208230,1313,25.604,-0.00049,-0.10986,-0.97119,-1.971190,-19.330770,-0.122,0.183,-0.183,2
2026-05-14T18:00:20.932,7.692,28228221,1314,25.619,-0.00049,-0.11133,-0.96973,-1.969730,-19.316453,-0.061,0.183,-0.122,2
2026-05-14T18:00:20.945,7.704,28242959,1315,25.589,0.00098,-0.11133,-0.97070,-1.970700,-19.325965,-0.061,0.122,-0.183,2
2026-05-14T18:00:20.970,7.729,28269219,1316,25.589,0.00000,-0.11035,-0.97119,-1.971190,-19.330770,-0.061,0.122,-0.122,2
2026-05-14T18:00:20.995,7.755,28289210,1317,25.589,-0.00049,-0.10938,-0.97217,-1.972170,-19.340381,-0.122,0.183,-0.244,2
2026-05-14T18:00:21.008,7.767,28304957,1318,25.604,-0.00098,-0.10986,-0.96973,-1.969730,-19.316453,-0.061,0.122,-0.183,2
2026-05-14T18:00:21.033,7.792,28330209,1319,25.604,0.00146,-0.11084,-0.96924,-1.969240,-19.311647,-0.061,0.183,-0.183,2
2026-05-14T18:00:21.058,7.817,28350198,1320,25.589,-0.00049,-0.11230,-0.97217,-1.972170,-19.340381,-0.122,0.183,-0.183,2
2026-05-14T18:00:21.071,7.830,28364957,1321,25.574,-0.00049,-0.11182,-0.97070,-1.970700,-19.325965,-0.122,0.183,-0.183,2
2026-05-14T18:00:21.111,7.871,28400968,1322,25.589,-0.00098,-0.11035,-0.97021,-1.970210,-19.321160,-0.122,0.183,-0.183,2
2026-05-14T18:00:21.133,7.893,28427234,1323,25.574,-0.00098,-0.10986,-0.97070,-1.970700,-19.325965,-0.122,0.183,-0.183,2
2026-05-14T18:00:21.159,7.918,28447221,1324,25.574,-0.00049,-0.11133,-0.96729,-1.967290,-19.292524,-0.061,0.122,-0.183,2
2026-05-14T18:00:21.171,7.931,28462971,1325,25.589,-0.00049,-0.10938,-0.96631,-1.966310,-19.282914,-0.122,0.183,-0.183,2
2026-05-14T18:00:21.195,7.955,28488213,1326,25.589,0.00049,-0.11084,-0.97070,-1.970700,-19.325965,-0.122,0.183,-0.183,2
2026-05-14T18:00:21.220,7.980,28508220,1327,25.589,-0.00098,-0.10986,-0.97021,-1.970210,-19.321160,-0.061,0.183,-0.183,2
2026-05-14T18:00:21.233,7.993,28522956,1328,25.574,0.00000,-0.10938,-0.97119,-1.971190,-19.330770,-0.061,0.122,-0.183,2
2026-05-14T18:00:21.257,8.016,28549219,1329,25.604,0.00000,-0.11084,-0.97070,-1.970700,-19.325965,-0.122,0.183,-0.122,2
2026-05-14T18:00:21.281,8.041,28569221,1330,25.574,0.00000,-0.11182,-0.97168,-1.971680,-19.335576,-0.061,0.183,-0.183,2
2026-05-14T18:00:21.294,8.054,28584945,1331,25.574,-0.00049,-0.11133,-0.97217,-1.972170,-19.340381,-0.122,0.183,-0.183,2
2026-05-14T18:00:21.319,8.079,28610213,1332,25.589,0.00000,-0.10986,-0.97070,-1.970700,-19.325965,-0.061,0.183,-0.183,2
2026-05-14T18:00:21.333,8.092,28630210,1333,25.604,0.00049,-0.11084,-0.97168,-1.971680,-19.335576,-0.122,0.183,-0.183,2
2026-05-14T18:00:21.402,8.161,28645942,1334,25.574,-0.00098,-0.11133,-0.97021,-1.970210,-19.321160,-0.061,0.183,-0.183,2
2026-05-14T18:00:21.414,8.174,28671210,1335,25.574,0.00098,-0.11084,-0.97168,-1.971680,-19.335576,-0.122,0.183,-0.183,2
2026-05-14T18:00:21.415,8.174,28691203,1336,25.604,0.00000,-0.10986,-0.97168,-1.971680,-19.335576,-0.061,0.183,-0.122,2
2026-05-14T18:00:21.416,8.175,28705946,1337,25.589,0.00000,-0.11182,-0.97119,-1.971190,-19.330770,-0.061,0.183,-0.183,2
2026-05-14T18:00:21.439,8.199,28731218,1338,25.619,0.00049,-0.11084,-0.97021,-1.970210,-19.321160,-0.122,0.183,-0.183,2
2026-05-14T18:00:21.451,8.210,28751211,1339,25.589,-0.00049,-0.10986,-0.97021,-1.970210,-19.321160,-0.122,0.183,-0.122,2
2026-05-14T18:00:21.474,8.233,28766958,1340,25.634,0.00000,-0.10986,-0.97119,-1.971190,-19.330770,-0.122,0.183,-0.183,2
2026-05-14T18:00:21.499,8.259,28792207,1341,25.619,0.00049,-0.11084,-0.97119,-1.971190,-19.330770,-0.061,0.183,-0.122,2
2026-05-14T18:00:21.524,8.283,28812205,1342,25.604,0.00049,-0.10938,-0.97119,-1.971190,-19.330770,0.000,0.183,-0.183,2
2026-05-14T18:00:21.537,8.296,28826931,1343,25.604,0.00000,-0.11133,-0.97021,-1.970210,-19.321160,-0.061,0.183,-0.122,2
2026-05-14T18:00:21.562,8.322,28852209,1344,25.604,0.00049,-0.11035,-0.97168,-1.971680,-19.335576,-0.122,0.183,-0.183,2
2026-05-14T18:00:21.575,8.334,28872210,1345,25.589,-0.00195,-0.11133,-0.97021,-1.970210,-19.321160,-0.122,0.122,-0.183,2
2026-05-14T18:00:21.587,8.347,28886956,1346,25.574,0.00049,-0.10986,-0.97119,-1.971190,-19.330770,-0.122,0.183,-0.183,2
2026-05-14T18:00:21.625,8.384,28913217,1347,25.604,0.00000,-0.11084,-0.97314,-1.973140,-19.349893,-0.122,0.183,-0.122,2
2026-05-14T18:00:21.638,8.397,28933212,1348,25.604,0.00049,-0.11182,-0.97119,-1.971190,-19.330770,-0.061,0.183,-0.122,2
2026-05-14T18:00:21.650,8.410,28948946,1349,25.543,0.00049,-0.11035,-0.97021,-1.970210,-19.321160,-0.122,0.183,-0.183,2
2026-05-14T18:00:21.674,8.434,28974233,1350,25.574,-0.00098,-0.10986,-0.97119,-1.971190,-19.330770,-0.122,0.122,-0.183,2
2026-05-14T18:00:21.699,8.458,28994220,1351,25.589,-0.00098,-0.11084,-0.97021,-1.970210,-19.321160,-0.122,0.183,-0.183,2
2026-05-14T18:00:21.710,8.469,29009973,1352,25.574,-0.00098,-0.11035,-0.97168,-1.971680,-19.335576,-0.061,0.183,-0.122,2
2026-05-14T18:00:21.735,8.495,29035217,1353,25.604,0.00049,-0.11084,-0.97168,-1.971680,-19.335576,-0.061,0.183,-0.183,2
2026-05-14T18:00:21.760,8.520,29055221,1354,25.589,0.00000,-0.11084,-0.97070,-1.970700,-19.325965,-0.122,0.183,-0.122,2
2026-05-14T18:00:21.773,8.533,29069972,1355,25.574,0.00000,-0.10986,-0.96973,-1.969730,-19.316453,-0.061,0.183,-0.183,2
2026-05-14T18:00:21.799,8.558,29096233,1356,25.604,0.00000,-0.11035,-0.97168,-1.971680,-19.335576,-0.122,0.183,-0.122,2
2026-05-14T18:00:21.822,8.581,29116220,1357,25.574,0.00049,-0.10986,-0.97070,-1.970700,-19.325965,-0.122,0.244,-0.183,2
2026-05-14T18:00:21.834,8.594,29131973,1358,25.574,-0.00098,-0.10938,-0.96875,-1.968750,-19.306842,-0.122,0.183,-0.183,2
2026-05-14T18:00:21.918,8.678,29157217,1359,25.589,0.00000,-0.11035,-0.97070,-1.970700,-19.325965,-0.122,0.122,-0.183,2
2026-05-14T18:00:21.919,8.678,29177221,1360,25.574,0.00000,-0.11084,-0.96973,-1.969730,-19.316453,-0.061,0.183,-0.244,2
2026-05-14T18:00:21.919,8.679,29191959,1361,25.589,0.00000,-0.11084,-0.97021,-1.970210,-19.321160,-0.061,0.122,-0.183,2
2026-05-14T18:00:21.925,8.684,29218214,1362,25.559,-0.00049,-0.11035,-0.97119,-1.971190,-19.330770,-0.122,0.122,-0.122,2
2026-05-14T18:00:21.944,8.703,29238220,1363,25.589,0.00000,-0.11133,-0.97119,-1.971190,-19.330770,-0.122,0.183,-0.122,2
2026-05-14T18:00:21.957,8.716,29253960,1364,25.604,-0.00098,-0.11084,-0.97119,-1.971190,-19.330770,-0.122,0.183,-0.183,2
2026-05-14T18:00:21.982,8.741,29279217,1365,25.574,0.00000,-0.11084,-0.97070,-1.970700,-19.325965,-0.122,0.183,-0.122,2
2026-05-14T18:00:22.007,8.766,29299211,1366,25.559,0.00000,-0.11084,-0.97119,-1.971190,-19.330770,-0.061,0.183,-0.183,2
2026-05-14T18:00:22.020,8.779,29314953,1367,25.574,-0.00049,-0.11035,-0.97119,-1.971190,-19.330770,-0.122,0.183,-0.061,2
2026-05-14T18:00:22.042,8.801,29340227,1368,25.574,0.00146,-0.11035,-0.97021,-1.970210,-19.321160,-0.122,0.183,-0.122,2
2026-05-14T18:00:22.067,8.826,29360207,1369,25.604,0.00000,-0.11084,-0.97021,-1.970210,-19.321160,-0.122,0.183,-0.122,2
2026-05-14T18:00:22.105,8.864,29396950,1370,25.574,0.00000,-0.11230,-0.97852,-1.978520,-19.402653,-0.122,0.122,-0.122,2
2026-05-14T18:00:22.130,8.889,29422216,1371,25.604,0.00049,-0.11035,-0.97217,-1.972170,-19.340381,-0.183,0.061,-0.122,2
2026-05-14T18:00:22.153,8.913,29442212,1372,25.634,-0.00049,-0.11279,-0.97852,-1.978520,-19.402653,-0.061,0.244,-0.122,2
2026-05-14T18:00:22.167,8.926,29456956,1373,25.574,0.00049,-0.10889,-0.96826,-1.968260,-19.302037,-0.061,0.183,-0.183,2
2026-05-14T18:00:22.191,8.950,29483211,1374,25.604,-0.00049,-0.11035,-0.97168,-1.971680,-19.335576,0.000,0.183,-0.183,2
2026-05-14T18:00:22.203,8.963,29503202,1375,25.619,0.00342,-0.10840,-0.97217,-1.972170,-19.340381,0.000,0.183,-0.122,2
2026-05-14T18:00:22.227,8.987,29517943,1376,25.604,-0.00342,-0.11475,-0.98096,-1.980960,-19.426581,-0.061,0.183,-0.183,2
2026-05-14T18:00:22.250,9.009,29543219,1377,25.574,0.00195,-0.10986,-0.97266,-1.972660,-19.345186,-0.122,0.183,-0.183,2
2026-05-14T18:00:22.274,9.033,29563213,1378,25.589,-0.00098,-0.11182,-0.97021,-1.970210,-19.321160,-0.061,0.183,-0.183,2
2026-05-14T18:00:22.287,9.046,29578947,1379,25.574,0.00000,-0.11084,-0.97168,-1.971680,-19.335576,-0.061,0.183,-0.183,2
2026-05-14T18:00:22.312,9.072,29604200,1380,25.604,-0.00049,-0.11133,-0.97021,-1.970210,-19.321160,-0.122,0.183,-0.183,2
2026-05-14T18:00:22.325,9.084,29624211,1381,25.574,-0.00146,-0.11182,-0.97021,-1.970210,-19.321160,-0.122,0.183,-0.183,2
2026-05-14T18:00:22.348,9.107,29638968,1382,25.634,0.00049,-0.10986,-0.96924,-1.969240,-19.311647,-0.122,0.183,-0.183,2
2026-05-14T18:00:22.416,9.176,29665234,1383,25.589,0.00000,-0.11035,-0.97070,-1.970700,-19.325965,-0.061,0.183,-0.183,2
2026-05-14T18:00:22.417,9.176,29685214,1384,25.604,0.00049,-0.10986,-0.97119,-1.971190,-19.330770,-0.122,0.183,-0.183,2
2026-05-14T18:00:22.417,9.176,29700962,1385,25.604,0.00000,-0.11084,-0.97021,-1.970210,-19.321160,0.061,0.183,-0.122,2
2026-05-14T18:00:22.430,9.189,29726210,1386,25.604,-0.00098,-0.11035,-0.97119,-1.971190,-19.330770,-0.061,0.183,-0.183,2
2026-05-14T18:00:22.455,9.214,29746230,1387,25.619,0.00000,-0.11035,-0.97217,-1.972170,-19.340381,0.000,0.183,-0.122,2
2026-05-14T18:00:22.466,9.226,29761966,1388,25.589,-0.00049,-0.11133,-0.97119,-1.971190,-19.330770,-0.122,0.183,-0.122,2
2026-05-14T18:00:22.491,9.251,29787234,1389,25.604,0.00000,-0.11084,-0.97119,-1.971190,-19.330770,-0.061,0.122,-0.183,2
2026-05-14T18:00:22.512,9.272,29807218,1390,25.604,-0.00098,-0.11182,-0.97070,-1.970700,-19.325965,-0.061,0.183,-0.183,2
2026-05-14T18:00:22.523,9.282,29822951,1391,25.604,-0.00049,-0.11035,-0.97070,-1.970700,-19.325965,-0.122,0.122,-0.122,2
2026-05-14T18:00:22.559,9.319,29848211,1392,25.574,0.00049,-0.11035,-0.97070,-1.970700,-19.325965,-0.061,0.122,-0.183,2
2026-05-14T18:00:22.572,9.332,29868213,1393,25.574,-0.00098,-0.11084,-0.96973,-1.969730,-19.316453,-0.061,0.183,-0.122,2
2026-05-14T18:00:22.585,9.344,29882942,1394,25.604,-0.00049,-0.10986,-0.97070,-1.970700,-19.325965,-0.061,0.122,-0.183,2
2026-05-14T18:00:22.621,9.380,29909211,1395,25.589,0.00000,-0.11182,-0.97314,-1.973140,-19.349893,-0.122,0.183,-0.183,2
2026-05-14T18:00:22.631,9.391,29929203,1396,25.589,-0.00049,-0.11035,-0.96973,-1.969730,-19.316453,-0.122,0.183,-0.183,2
2026-05-14T18:00:22.644,9.403,29943960,1397,25.604,0.00049,-0.10986,-0.97119,-1.971190,-19.330770,-0.122,0.183,-0.183,2
2026-05-14T18:00:22.677,9.437,29970204,1398,25.574,0.00000,-0.11035,-0.97021,-1.970210,-19.321160,-0.122,0.183,-0.183,2
2026-05-14T18:00:22.690,9.450,29990202,1399,25.589,-0.00098,-0.11133,-0.96973,-1.969730,-19.316453,-0.122,0.122,-0.183,2
2026-05-14T18:00:22.715,9.474,30004945,1400,25.574,0.00000,-0.11084,-0.97119,-1.971190,-19.330770,-0.122,0.183,-0.183,2
2026-05-14T18:00:22.740,9.500,30031211,1401,25.604,-0.00049,-0.10986,-0.96875,-1.968750,-19.306842,0.061,0.183,-0.183,2
2026-05-14T18:00:22.753,9.513,30051212,1402,25.589,-0.00049,-0.11133,-0.96973,-1.969730,-19.316453,0.305,0.244,-0.244,2
2026-05-14T18:00:22.778,9.538,30066950,1403,25.574,0.00049,-0.10986,-0.97510,-1.975100,-19.369114,-0.122,0.122,-0.183,2
2026-05-14T18:00:22.803,9.563,30092211,1404,25.574,0.00000,-0.11084,-0.97266,-1.972660,-19.345186,-0.183,0.122,-0.183,2
2026-05-14T18:00:22.814,9.574,30112204,1405,25.589,0.00049,-0.11084,-0.96924,-1.969240,-19.311647,-0.183,0.122,-0.183,2
2026-05-14T18:00:22.828,9.587,30126930,1406,25.589,0.00000,-0.11084,-0.96875,-1.968750,-19.306842,-1.280,0.183,0.061,2
2026-05-14T18:00:22.853,9.612,30152201,1407,25.604,0.00049,-0.11035,-0.97021,-1.970210,-19.321160,-0.488,0.183,-0.183,2
2026-05-14T18:00:22.913,9.673,30172198,1408,25.604,-0.00049,-0.00049,-0.00049,-1.000490,-9.811455,-0.061,-0.061,-0.061,2
2026-05-14T18:00:22.914,9.673,30186962,1409,25.604,0.00000,-0.10986,-0.97070,-1.970700,-19.325965,0.183,0.244,-0.183,2
2026-05-14T18:00:22.919,9.679,30213213,1410,25.589,0.00098,-0.11133,-0.97266,-1.972660,-19.345186,-0.061,0.183,-0.183,2
2026-05-14T18:00:22.943,9.702,30233210,1411,25.619,0.00000,-0.11035,-0.96973,-1.969730,-19.316453,-0.183,0.244,-0.183,2
2026-05-14T18:00:22.955,9.715,30248946,1412,25.589,-0.00098,-0.11084,-0.96973,-1.969730,-19.316453,-0.488,0.183,-0.122,2
2026-05-14T18:00:22.978,9.738,30274218,1413,25.574,0.00098,-0.10986,-0.97119,-1.971190,-19.330770,-1.220,0.183,0.000,2
2026-05-14T18:00:23.003,9.763,30294213,1414,25.574,-0.00049,-0.10986,-0.97021,-1.970210,-19.321160,-1.159,0.183,-0.122,2
2026-05-14T18:00:23.015,9.774,30308973,1415,25.589,-0.00098,-0.10840,-0.97021,-1.970210,-19.321160,-0.793,0.122,-0.183,2
2026-05-14T18:00:23.038,9.798,30335212,1416,25.604,0.00000,-0.10693,-0.96777,-1.967770,-19.297232,-1.768,0.183,-0.183,2
2026-05-14T18:00:23.062,9.821,30355227,1417,25.604,0.00000,-0.10693,-0.96777,-1.967770,-19.297232,-1.768,0.183,-0.183,2
2026-05-14T18:00:23.099,9.858,30391954,1418,25.619,-0.00146,-0.10596,-0.97266,-1.972660,-19.345186,-2.012,0.183,-0.122,2
2026-05-14T18:00:23.124,9.883,30417230,1419,25.604,-0.00146,-0.10107,-0.97168,-1.971680,-19.335576,-6.037,0.122,-0.061,2
2026-05-14T18:00:23.147,9.906,30437220,1420,25.619,0.00000,-0.09961,-0.96826,-1.968260,-19.302037,-2.012,0.183,-0.183,2
2026-05-14T18:00:23.160,9.919,30452959,1421,25.619,0.00000,-0.09961,-0.96826,-1.968260,-19.302037,-2.012,0.183,-0.183,2
2026-05-14T18:00:23.184,9.943,30478212,1422,25.604,0.00146,-0.09717,-0.96338,-1.963380,-19.254180,-6.646,0.122,0.000,2
2026-05-14T18:00:23.207,9.966,30498212,1423,25.574,-0.00098,-0.10547,-0.98975,-1.989750,-19.512782,-8.659,-0.061,0.000,2
2026-05-14T18:00:23.219,9.979,30512957,1424,25.574,-0.00098,-0.10547,-0.98975,-1.989750,-19.512782,-8.659,-0.061,0.000,2
2026-05-14T18:00:23.245,10.005,30539211,1425,25.589,-0.00098,-0.07031,-0.94775,-1.947750,-19.100903,-39.268,-0.244,-0.244,2
2026-05-14T18:00:23.270,10.029,30559208,1426,25.619,-0.00049,-0.07324,-0.97119,-1.971190,-19.330770,-13.354,0.061,-0.061,2
2026-05-14T18:00:23.283,10.042,30574945,1427,25.619,-0.00049,-0.07324,-0.97119,-1.971190,-19.330770,-13.354,0.061,-0.061,2
2026-05-14T18:00:23.308,10.067,30600218,1428,25.604,-0.00098,-0.06836,-0.98682,-1.986820,-19.484048,-33.232,-0.244,-0.549,2
2026-05-14T18:00:23.321,10.080,30620211,1429,25.589,-0.00195,-0.04980,-0.97314,-1.973140,-19.349893,-37.073,-0.305,-0.488,2
2026-05-14T18:00:23.343,10.103,30635971,1430,25.589,-0.00195,-0.04980,-0.97314,-1.973140,-19.349893,-37.073,-0.305,-0.488,2
2026-05-14T18:00:23.414,10.173,30661212,1431,25.634,0.04346,-0.08691,-0.96289,-1.962890,-19.249375,-5.244,0.122,-2.012,2
2026-05-14T18:00:23.414,10.174,30681228,1432,25.589,0.01904,-0.05859,-0.97266,-1.972660,-19.345186,-0.122,0.183,-8.110,2
2026-05-14T18:00:23.415,10.175,30696971,1433,25.589,0.01904,-0.05859,-0.97266,-1.972660,-19.345186,-0.122,0.183,-8.110,2
2026-05-14T18:00:23.431,10.190,30722218,1434,25.604,-0.00146,-0.03027,-0.97412,-1.974120,-19.359504,0.793,0.122,-2.500,2
2026-05-14T18:00:23.443,10.203,30742221,1435,25.604,-0.02588,-0.00049,-0.97705,-1.977050,-19.388237,-2.256,0.122,-1.707,2
2026-05-14T18:00:23.468,10.228,30757971,1436,25.604,-0.02588,-0.00049,-0.97705,-1.977050,-19.388237,-2.256,0.122,-1.707,2
2026-05-14T18:00:23.493,10.253,30783212,1437,25.619,0.02637,-0.06592,-0.97021,-1.970210,-19.321160,-7.561,0.122,-0.854,2
2026-05-14T18:00:23.505,10.264,30803228,1438,25.604,-0.00830,-0.03320,-0.97461,-1.974610,-19.364309,-3.476,0.122,-6.037,2
2026-05-14T18:00:23.526,10.286,30818971,1439,25.604,-0.00830,-0.03320,-0.97461,-1.974610,-19.364309,-3.476,0.122,-6.037,2
2026-05-14T18:00:23.552,10.311,30844218,1440,25.634,0.00244,-0.02393,-0.97021,-1.970210,-19.321160,0.122,0.244,-3.232,2
2026-05-14T18:00:23.574,10.334,30864215,1441,25.604,-0.00977,-0.02246,-0.98340,-1.983400,-19.450510,0.793,0.122,-6.280,2
2026-05-14T18:00:23.587,10.346,30878946,1442,25.604,-0.00977,-0.02246,-0.98340,-1.983400,-19.450510,0.793,0.122,-6.280,2
2026-05-14T18:00:23.611,10.371,30905218,1443,25.664,-0.00098,-0.02100,-0.97949,-1.979490,-19.412166,-6.463,0.183,-0.305,2
2026-05-14T18:00:23.633,10.393,30925219,1444,25.604,-0.00146,-0.01855,-0.97803,-1.978030,-19.397848,-5.305,0.183,-0.427,2
2026-05-14T18:00:23.646,10.405,30939972,1445,25.604,-0.00146,-0.01855,-0.97803,-1.978030,-19.397848,-5.305,0.183,-0.427,2
2026-05-14T18:00:23.670,10.430,30966220,1446,25.619,-0.00195,-0.01660,-0.97559,-1.975590,-19.373920,1.220,0.305,-0.183,2
2026-05-14T18:00:23.693,10.453,30986220,1447,25.649,-0.00293,-0.01807,-0.97510,-1.975100,-19.369114,2.134,0.244,-0.122,2
2026-05-14T18:00:23.706,10.466,31001957,1448,25.619,-0.00098,-0.02051,-0.97754,-1.977540,-19.393043,2.317,0.366,-0.122,2
2026-05-14T18:00:23.729,10.489,31027219,1449,25.634,-0.00049,-0.02246,-0.98242,-1.982420,-19.440899,-1.159,0.244,0.122,2
2026-05-14T18:00:23.754,10.514,31047211,1450,25.619,-0.00146,-0.02100,-0.97656,-1.976560,-19.383432,-2.073,0.122,0.061,2
2026-05-14T18:00:23.767,10.526,31062943,1451,25.634,-0.00146,-0.01904,-0.97803,-1.978030,-19.397848,-1.341,0.183,0.000,2
2026-05-14T18:00:23.792,10.551,31088209,1452,25.634,-0.00098,-0.01855,-0.98096,-1.980960,-19.426581,-0.854,0.183,-0.305,2
2026-05-14T18:00:23.817,10.577,31108213,1453,25.634,-0.00146,-0.01904,-0.97949,-1.979490,-19.412166,0.732,0.244,-0.183,2
2026-05-14T18:00:23.830,10.589,31123953,1454,25.604,-0.00098,-0.01807,-0.97754,-1.977540,-19.393043,-0.915,0.183,0.000,2
2026-05-14T18:00:23.855,10.615,31149217,1455,25.634,-0.00098,-0.01758,-0.97803,-1.978030,-19.397848,-0.366,0.183,-0.061,2
2026-05-14T18:00:23.922,10.682,31169211,1456,25.634,0.00000,-0.01953,-0.97949,-1.979490,-19.412166,-0.122,0.183,-0.122,2
2026-05-14T18:00:23.922,10.682,31184946,1457,25.664,-0.00049,-0.01855,-0.97754,-1.977540,-19.393043,-2.683,0.244,-0.549,2
2026-05-14T18:00:23.923,10.682,31210211,1458,25.634,-0.00244,-0.01611,-0.97852,-1.978520,-19.402653,-6.646,0.122,-0.549,2
2026-05-14T18:00:23.937,10.696,31230210,1459,25.649,-0.00195,-0.01221,-0.97559,-1.975590,-19.373920,-4.512,0.000,-0.549,2
2026-05-14T18:00:23.949,10.709,31245970,1460,25.634,-0.00146,-0.01172,-0.97314,-1.973140,-19.349893,-1.280,0.183,-0.366,2
2026-05-14T18:00:23.975,10.734,31271219,1461,25.664,-0.00195,-0.01416,-0.97412,-1.974120,-19.359504,0.976,0.366,0.000,2
2026-05-14T18:00:24.000,10.759,31291210,1462,25.649,-0.00098,-0.01416,-0.97803,-1.978030,-19.397848,1.037,0.305,0.000,2
2026-05-14T18:00:24.012,10.772,31305945,1463,25.664,-0.00049,-0.01367,-0.97852,-1.978520,-19.402653,1.646,0.244,0.000,2
2026-05-14T18:00:24.038,10.797,31331209,1464,25.664,-0.00049,-0.01465,-0.97852,-1.978520,-19.402653,2.378,0.244,0.122,2
2026-05-14T18:00:24.062,10.822,31351209,1465,25.694,-0.00098,-0.01563,-0.97998,-1.979980,-19.416971,1.037,0.244,0.061,2
2026-05-14T18:00:24.075,10.835,31365930,1466,25.664,-0.00049,-0.01563,-0.98145,-1.981450,-19.431387,-0.793,0.183,0.000,2
2026-05-14T18:00:24.113,10.873,31402954,1467,25.619,-0.00098,-0.01563,-0.97852,-1.978520,-19.402653,-0.488,0.122,-0.122,2
2026-05-14T18:00:24.138,10.897,31428211,1468,25.679,-0.00146,-0.01563,-0.97803,-1.978030,-19.397848,0.610,0.183,-0.061,2
2026-05-14T18:00:24.151,10.910,31448202,1469,25.649,-0.00146,-0.01611,-0.97998,-1.979980,-19.416971,0.488,0.244,0.061,2
2026-05-14T18:00:24.164,10.923,31462930,1470,25.649,-0.00146,-0.01611,-0.97998,-1.979980,-19.416971,0.488,0.244,0.061,2
2026-05-14T18:00:24.189,10.948,31488201,1471,25.649,-0.00146,-0.01709,-0.97900,-1.979000,-19.407360,0.061,0.244,-0.061,2
2026-05-14T18:00:24.214,10.973,31508198,1472,25.679,-0.00049,-0.01758,-0.97900,-1.979000,-19.407360,0.610,0.244,-0.061,2
2026-05-14T18:00:24.226,10.986,31522932,1473,25.679,-0.00049,-0.01758,-0.97900,-1.979000,-19.407360,0.610,0.244,-0.061,2
2026-05-14T18:00:24.251,11.011,31548209,1474,25.679,-0.00146,-0.01465,-0.97803,-1.978030,-19.397848,-1.341,0.183,-0.122,2
2026-05-14T18:00:24.277,11.036,31568210,1475,25.694,-0.00098,-0.01514,-0.97754,-1.977540,-19.393043,-0.427,0.183,-0.061,2
2026-05-14T18:00:24.290,11.049,31582943,1476,25.694,-0.00098,-0.01514,-0.97754,-1.977540,-19.393043,-0.427,0.183,-0.061,2
2026-05-14T18:00:24.315,11.075,31609219,1477,25.710,-0.00146,-0.01514,-0.97900,-1.979000,-19.407360,-0.366,0.244,-0.183,2
2026-05-14T18:00:24.339,11.099,31629212,1478,25.710,-0.00098,-0.01514,-0.97900,-1.979000,-19.407360,-0.671,0.122,-0.122,2
2026-05-14T18:00:24.352,11.112,31644945,1479,25.710,-0.00098,-0.01514,-0.97900,-1.979000,-19.407360,-0.671,0.122,-0.122,2
2026-05-14T18:00:24.419,11.179,31670214,1480,25.694,-0.00146,-0.01514,-0.97998,-1.979980,-19.416971,-0.061,0.183,-0.122,2
2026-05-14T18:00:24.420,11.179,31690210,1481,25.694,-0.00098,-0.01465,-0.97852,-1.978520,-19.402653,0.122,0.183,-0.122,2
2026-05-14T18:00:24.420,11.180,31705953,1482,25.694,-0.00098,-0.01465,-0.97852,-1.978520,-19.402653,0.122,0.183,-0.122,2
2026-05-14T18:00:24.435,11.195,31731211,1483,25.710,-0.00146,-0.01611,-0.97998,-1.979980,-19.416971,0.976,0.244,-0.061,2
2026-05-14T18:00:24.460,11.220,31751203,1484,25.694,-0.00098,-0.01660,-0.98193,-1.981930,-19.436094,-0.610,0.183,-0.183,2
2026-05-14T18:00:24.471,11.231,31765959,1485,25.694,-0.00098,-0.01660,-0.98193,-1.981930,-19.436094,-0.610,0.183,-0.183,2
2026-05-14T18:00:24.495,11.255,31792213,1486,25.755,-0.00146,-0.01514,-0.97998,-1.979980,-19.416971,-0.244,0.244,-0.061,2
2026-05-14T18:00:24.519,11.278,31812220,1487,25.710,0.00000,-0.01563,-0.98096,-1.980960,-19.426581,-0.488,0.183,-0.183,2
2026-05-14T18:00:24.531,11.291,31826956,1488,25.710,0.00000,-0.01563,-0.98096,-1.980960,-19.426581,-0.488,0.183,-0.183,2
2026-05-14T18:00:24.556,11.316,31853226,1489,25.710,-0.00098,-0.01465,-0.97705,-1.977050,-19.388237,-0.305,0.122,-0.183,2
2026-05-14T18:00:24.582,11.341,31873219,1490,25.725,-0.00146,-0.01514,-0.97949,-1.979490,-19.412166,0.061,0.183,-0.061,2
2026-05-14T18:00:24.594,11.354,31888946,1491,25.725,-0.00146,-0.01514,-0.97949,-1.979490,-19.412166,0.061,0.183,-0.061,2
2026-05-14T18:00:24.620,11.379,31914210,1492,25.725,-0.00195,-0.01367,-0.98193,-1.981930,-19.436094,-1.829,0.122,-0.183,2
2026-05-14T18:00:24.642,11.402,31934210,1493,25.740,-0.00146,-0.01318,-0.97852,-1.978520,-19.402653,-0.549,0.183,-0.122,2
2026-05-14T18:00:24.654,11.414,31948953,1494,25.740,-0.00146,-0.01318,-0.97852,-1.978520,-19.402653,-0.549,0.183,-0.122,2
2026-05-14T18:00:24.677,11.437,31975238,1495,25.725,-0.00146,-0.01514,-0.98145,-1.981450,-19.431387,0.183,0.244,-0.122,2
2026-05-14T18:00:24.701,11.460,31995212,1496,25.755,-0.00244,-0.01318,-0.97803,-1.978030,-19.397848,-0.061,0.244,-0.061,2
2026-05-14T18:00:24.713,11.473,32010962,1497,25.755,-0.00146,-0.01465,-0.97852,-1.978520,-19.402653,0.793,0.244,-0.122,2
2026-05-14T18:00:24.738,11.498,32036234,1498,25.740,-0.00195,-0.01563,-0.98096,-1.980960,-19.426581,0.061,0.183,-0.122,2
2026-05-14T18:00:24.763,11.522,32056221,1499,25.785,-0.00195,-0.01514,-0.97803,-1.978030,-19.397848,0.061,0.183,-0.061,2
2026-05-14T18:00:24.775,11.535,32070953,1500,25.785,-0.00195,-0.01514,-0.97803,-1.978030,-19.397848,0.061,0.183,-0.061,2
2026-05-14T18:00:24.801,11.560,32097238,1501,25.785,-0.00049,-0.01611,-0.97852,-1.978520,-19.402653,0.976,0.366,-0.122,2
2026-05-14T18:00:24.822,11.582,32117212,1502,25.815,-0.00195,-0.01660,-0.98193,-1.981930,-19.436094,0.183,0.183,-0.122,2
2026-05-14T18:00:24.833,11.593,32132962,1503,25.800,-0.00146,-0.01660,-0.98193,-1.981930,-19.436094,-0.732,0.122,-0.122,2
2026-05-14T18:00:24.917,11.677,32158211,1504,25.785,-0.00195,-0.01563,-0.97949,-1.979490,-19.412166,-0.488,0.183,-0.183,2
2026-05-14T18:00:24.918,11.677,32178210,1505,25.785,-0.00098,-0.01514,-0.98047,-1.980470,-19.421776,0.000,0.183,-0.122,2
2026-05-14T18:00:24.918,11.678,32193947,1506,25.785,-0.00098,-0.01563,-0.97949,-1.979490,-19.412166,-0.061,0.183,-0.061,2
2026-05-14T18:00:24.923,11.683,32219209,1507,25.785,0.00000,-0.01563,-0.97998,-1.979980,-19.416971,-0.366,0.183,-0.122,2
2026-05-14T18:00:24.947,11.706,32239213,1508,25.800,-0.00146,-0.01563,-0.97949,-1.979490,-19.412166,-0.427,0.122,-0.244,2
2026-05-14T18:00:24.959,11.719,32253973,1509,25.785,-0.00049,-0.00049,-0.00049,-1.000490,-9.811455,-0.061,-0.061,-0.061,2
2026-05-14T18:00:24.984,11.744,32280232,1510,25.785,-0.00049,-0.01660,-0.97754,-1.977540,-19.393043,0.000,0.244,-0.122,2
2026-05-14T18:00:25.010,11.769,32300233,1511,25.785,-0.00195,-0.01465,-0.97705,-1.977050,-19.388237,-0.549,0.183,-0.244,2
2026-05-14T18:00:25.022,11.782,32315964,1512,25.815,-0.00146,-0.01514,-0.97998,-1.979980,-19.416971,0.488,0.183,-0.061,2
2026-05-14T18:00:25.046,11.806,32341234,1513,25.830,-0.00195,-0.01660,-0.98242,-1.982420,-19.440899,0.549,0.183,0.122,2
2026-05-14T18:00:25.071,11.831,32361219,1514,25.815,-0.00098,-0.01611,-0.98096,-1.980960,-19.426581,0.244,0.122,0.122,2
2026-05-14T18:00:25.113,11.873,32403164,1515,25.830,-0.00049,-0.01611,-0.97998,-1.979980,-19.416971,-0.244,0.244,-0.244,2
2026-05-14T18:00:25.120,11.880,32418213,1516,25.815,-0.00195,-0.01514,-0.97998,-1.979980,-19.416971,0.366,0.244,-0.183,2
2026-05-14T18:00:25.144,11.903,32438211,1517,25.845,-0.00146,-0.01416,-0.97949,-1.979490,-19.412166,0.366,0.244,-0.061,2
2026-05-14T18:00:25.156,11.916,32453938,1518,25.845,-0.00146,-0.01416,-0.97949,-1.979490,-19.412166,0.366,0.244,-0.061,2
2026-05-14T18:00:25.181,11.940,32479208,1519,25.830,-0.00049,-0.01709,-0.97949,-1.979490,-19.412166,0.549,0.244,-0.061,2
2026-05-14T18:00:25.205,11.965,32499212,1520,25.830,0.00000,-0.01709,-0.98096,-1.980960,-19.426581,0.366,0.183,-0.061,2
2026-05-14T18:00:25.218,11.978,32514956,1521,25.830,0.00000,-0.01709,-0.98096,-1.980960,-19.426581,0.366,0.183,-0.061,2
2026-05-14T18:00:25.243,12.003,32540209,1522,25.830,-0.00195,-0.01563,-0.98047,-1.980470,-19.421776,-0.671,0.183,-0.244,2
2026-05-14T18:00:25.266,12.026,32560210,1523,25.785,-0.00244,-0.01563,-0.98096,-1.980960,-19.426581,-0.549,0.183,-0.244,2
2026-05-14T18:00:25.279,12.039,32574943,1524,25.785,-0.00244,-0.01563,-0.98096,-1.980960,-19.426581,-0.549,0.183,-0.244,2
2026-05-14T18:00:25.304,12.064,32601209,1525,25.845,-0.00049,-0.01611,-0.98047,-1.980470,-19.421776,0.183,0.244,0.000,2
2026-05-14T18:00:25.329,12.089,32621203,1526,25.845,-0.00098,-0.01660,-0.97803,-1.978030,-19.397848,0.122,0.183,-0.061,2
2026-05-14T18:00:25.342,12.101,32635946,1527,25.845,-0.00098,-0.01660,-0.97803,-1.978030,-19.397848,0.122,0.183,-0.061,2
2026-05-14T18:00:25.419,12.178,32661211,1528,25.876,-0.00146,-0.01611,-0.98242,-1.982420,-19.440899,-0.366,0.183,-0.122,2
2026-05-14T18:00:25.419,12.179,32681208,1529,25.876,-0.00098,-0.01563,-0.97998,-1.979980,-19.416971,-0.122,0.122,-0.183,2
2026-05-14T18:00:25.420,12.179,32696946,1530,25.876,-0.00098,-0.01563,-0.97998,-1.979980,-19.416971,-0.122,0.122,-0.183,2
2026-05-14T18:00:25.432,12.191,32722218,1531,25.891,-0.00195,-0.01709,-0.98047,-1.980470,-19.421776,-0.122,0.183,-0.122,2
2026-05-14T18:00:25.444,12.204,32742209,1532,25.876,-0.00098,-0.01807,-0.97900,-1.979000,-19.407360,-0.366,0.183,-0.122,2
2026-05-14T18:00:25.468,12.227,32757965,1533,25.876,-0.00098,-0.01807,-0.97900,-1.979000,-19.407360,-0.366,0.183,-0.122,2
2026-05-14T18:00:25.491,12.251,32783227,1534,25.906,0.00000,-0.01611,-0.98145,-1.981450,-19.431387,0.000,0.183,-0.183,2
2026-05-14T18:00:25.514,12.273,32803212,1535,25.891,-0.00098,-0.01660,-0.97900,-1.979000,-19.407360,-0.122,0.183,-0.122,2
2026-05-14T18:00:25.527,12.286,32817943,1536,25.891,-0.00098,-0.01660,-0.97900,-1.979000,-19.407360,-0.122,0.183,-0.122,2
2026-05-14T18:00:25.552,12.311,32844204,1537,25.906,-0.00098,-0.01611,-0.98096,-1.980960,-19.426581,-0.244,0.183,-0.122,2
2026-05-14T18:00:25.564,12.324,32864213,1538,25.921,-0.00098,-0.01611,-0.97998,-1.979980,-19.416971,-0.549,0.183,-0.122,2
2026-05-14T18:00:25.589,12.349,32879956,1539,25.936,-0.00146,-0.01514,-0.97998,-1.979980,-19.416971,-0.061,0.183,-0.061,2
2026-05-14T18:00:25.613,12.372,32905220,1540,25.936,-0.00244,-0.01563,-0.97998,-1.979980,-19.416971,-0.061,0.183,-0.122,2
2026-05-14T18:00:25.635,12.394,32925211,1541,25.936,-0.00049,-0.01611,-0.98096,-1.980960,-19.426581,-0.244,0.183,-0.061,2
2026-05-14T18:00:25.647,12.406,32940969,1542,25.906,-0.00146,-0.01563,-0.98096,-1.980960,-19.426581,-0.244,0.183,-0.122,2
2026-05-14T18:00:25.670,12.430,32966230,1543,25.921,-0.00049,-0.01514,-0.97998,-1.979980,-19.416971,-0.122,0.183,-0.122,2
2026-05-14T18:00:25.693,12.453,32986228,1544,25.921,-0.00098,-0.01465,-0.97998,-1.979980,-19.416971,-0.488,0.183,-0.061,2
2026-05-14T18:00:25.706,12.465,33001956,1545,25.951,-0.00195,-0.01611,-0.97998,-1.979980,-19.416971,-0.549,0.122,-0.061,2
2026-05-14T18:00:25.731,12.491,33027231,1546,25.936,-0.00049,-0.01514,-0.98096,-1.980960,-19.426581,-0.061,0.183,-0.122,2
2026-05-14T18:00:25.756,12.515,33047221,1547,25.936,-0.00098,-0.01611,-0.98047,-1.980470,-19.421776,0.061,0.122,-0.122,2
2026-05-14T18:00:25.768,12.528,33062956,1548,25.921,-0.00098,-0.01514,-0.98047,-1.980470,-19.421776,-0.122,0.183,-0.061,2
2026-05-14T18:00:25.793,12.553,33088212,1549,25.966,-0.00098,-0.01563,-0.97949,-1.979490,-19.412166,-0.488,0.183,-0.061,2
2026-05-14T18:00:25.818,12.577,33108228,1550,25.906,-0.00146,-0.01514,-0.97900,-1.979000,-19.407360,-0.122,0.122,-0.061,2
2026-05-14T18:00:25.831,12.590,33123943,1551,25.921,-0.00195,-0.01563,-0.98047,-1.980470,-19.421776,0.061,0.183,-0.122,2
2026-05-14T18:00:25.856,12.615,33149209,1552,25.966,-0.00098,-0.01611,-0.98193,-1.981930,-19.436094,-0.366,0.183,-0.122,2
2026-05-14T18:00:25.917,12.677,33169212,1553,25.981,-0.00049,-0.01465,-0.97949,-1.979490,-19.412166,-0.671,0.183,-0.061,2
2026-05-14T18:00:25.928,12.688,33183942,1554,25.951,-0.00146,-0.01514,-0.97998,-1.979980,-19.416971,-0.305,0.183,-0.061,2
2026-05-14T18:00:25.929,12.688,33210217,1555,25.996,-0.00146,-0.01465,-0.97998,-1.979980,-19.416971,-0.244,0.183,-0.183,2
2026-05-14T18:00:25.939,12.699,33230227,1556,25.966,-0.00098,-0.01563,-0.98193,-1.981930,-19.436094,-0.183,0.183,-0.122,2
2026-05-14T18:00:25.951,12.710,33245971,1557,25.996,-0.00049,-0.01514,-0.97900,-1.979000,-19.407360,-0.122,0.122,-0.122,2
2026-05-14T18:00:25.976,12.735,33271232,1558,26.011,-0.00098,-0.01611,-0.97949,-1.979490,-19.412166,0.061,0.183,-0.061,2
2026-05-14T18:00:26.001,12.760,33291230,1559,25.981,-0.00195,-0.01465,-0.98145,-1.981450,-19.431387,-0.061,0.183,-0.122,2
2026-05-14T18:00:26.013,12.773,33305969,1560,25.966,-0.00098,-0.01563,-0.98047,-1.980470,-19.421776,-0.427,0.183,-0.122,2
2026-05-14T18:00:26.038,12.798,33332217,1561,25.996,-0.00098,-0.01611,-0.97949,-1.979490,-19.412166,-0.061,-248.841,-0.061,2
2026-05-14T18:00:26.063,12.823,33352221,1562,26.042,-0.00195,-0.01416,-0.97852,-1.978520,-19.402653,0.061,0.183,-0.183,2
2026-05-14T18:00:26.076,12.836,33367958,1563,26.027,-0.00146,-0.01563,-0.98145,-1.981450,-19.431387,0.000,0.183,-0.122,2
2026-05-14T18:00:26.114,12.873,33404965,1564,25.996,-0.00049,-0.01514,-0.97949,-1.979490,-19.412166,-0.915,0.122,-0.122,2
2026-05-14T18:00:26.139,12.899,33430220,1565,25.996,-0.00146,-0.01416,-0.97803,-1.978030,-19.397848,-0.427,0.183,-0.122,2
2026-05-14T18:00:26.152,12.911,33450220,1566,26.011,-0.00098,-0.01514,-0.97852,-1.978520,-19.402653,0.244,0.183,-0.122,2
2026-05-14T18:00:26.175,12.934,33465956,1567,26.042,-0.00146,-0.01563,-0.98145,-1.981450,-19.431387,-0.244,0.183,-0.122,2
2026-05-14T18:00:26.199,12.959,33491233,1568,26.042,-0.00146,-0.01416,-0.98096,-1.980960,-19.426581,-0.366,0.183,-0.061,2
2026-05-14T18:00:26.211,12.971,33511227,1569,26.011,-0.00146,-0.01416,-0.98047,-1.980470,-19.421776,0.061,0.122,-0.122,2
2026-05-14T18:00:26.236,12.996,33526954,1570,26.027,-0.00098,-0.01611,-0.98047,-1.980470,-19.421776,0.305,0.244,-0.183,2
2026-05-14T18:00:26.259,13.019,33552220,1571,26.027,-0.00146,-0.01514,-0.98047,-1.980470,-19.421776,-0.122,0.183,-0.122,2
2026-05-14T18:00:26.284,13.044,33572220,1572,26.011,-0.00098,-0.01465,-0.97900,-1.979000,-19.407360,-0.366,0.183,-0.122,2
2026-05-14T18:00:26.297,13.057,33587969,1573,26.027,-0.00146,-0.01514,-0.97998,-1.979980,-19.416971,0.000,0.244,-0.061,2
2026-05-14T18:00:26.320,13.080,33613214,1574,26.057,-0.00195,-0.01465,-0.97998,-1.979980,-19.416971,0.000,0.183,-0.122,2
2026-05-14T18:00:26.343,13.103,33633227,1575,26.042,-0.00195,-0.01465,-0.98145,-1.981450,-19.431387,-0.244,0.183,-0.183,2
2026-05-14T18:00:26.405,13.165,33648967,1576,26.042,-0.00098,-0.01367,-0.97998,-1.979980,-19.416971,-0.244,0.183,-0.183,2
2026-05-14T18:00:26.416,13.175,33674220,1577,26.027,-0.00098,-0.01514,-0.98047,-1.980470,-19.421776,0.061,0.244,-0.122,2
2026-05-14T18:00:26.416,13.176,33694220,1578,26.057,-0.00195,-0.01611,-0.98145,-1.981450,-19.431387,-0.122,0.244,-0.122,2
2026-05-14T18:00:26.421,13.180,33709944,1579,26.027,-0.00146,-0.01563,-0.98145,-1.981450,-19.431387,-0.671,0.183,-0.122,2
2026-05-14T18:00:26.443,13.203,33735208,1580,26.057,-0.00098,-0.01416,-0.97900,-1.979000,-19.407360,-0.610,0.183,-0.183,2
2026-05-14T18:00:26.466,13.225,33755212,1581,26.057,-0.00195,-0.01465,-0.97852,-1.978520,-19.402653,-0.061,-0.061,-0.061,2
2026-05-14T18:00:26.477,13.236,33770955,1582,26.087,-0.00049,-0.01465,-0.97949,-1.979490,-19.412166,0.183,0.122,-0.122,2
2026-05-14T18:00:26.502,13.262,33796228,1583,26.087,-0.00049,-0.01514,-0.98193,-1.981930,-19.436094,-0.427,0.183,-0.061,2
2026-05-14T18:00:26.526,13.286,33816212,1584,26.042,-0.00049,-0.01416,-0.98047,-1.980470,-19.421776,-0.488,0.183,-0.122,2
2026-05-14T18:00:26.539,13.298,33831943,1585,26.072,-0.00098,-0.02783,-0.00049,-1.000490,-9.811455,-0.061,-0.061,-0.061,2
2026-05-14T18:00:26.564,13.323,33857226,1586,26.087,-0.00049,-0.01367,-0.97949,-1.979490,-19.412166,0.305,0.183,-0.122,2
2026-05-14T18:00:26.589,13.348,33877227,1587,26.072,-0.00195,-0.01465,-0.98096,-1.980960,-19.426581,0.061,0.183,-0.183,2
2026-05-14T18:00:26.602,13.361,33892954,1588,26.087,-0.00098,-0.01563,-0.97949,-1.979490,-19.412166,-0.122,0.183,-0.183,2
2026-05-14T18:00:26.627,13.386,33918228,1589,26.102,-0.00244,-0.01416,-0.97949,-1.979490,-19.412166,-0.183,0.183,-0.122,2
2026-05-14T18:00:26.639,13.399,33938220,1590,26.087,-0.00146,-0.01416,-0.97900,-1.979000,-19.407360,0.244,0.183,-0.122,2
2026-05-14T18:00:26.664,13.424,33953969,1591,26.117,-0.00098,-0.01514,-0.98096,-1.980960,-19.426581,0.000,0.122,-0.122,2
2026-05-14T18:00:26.689,13.449,33979226,1592,26.087,-0.00098,-0.01514,-0.97949,-1.979490,-19.412166,-0.427,0.183,-0.122,2
2026-05-14T18:00:26.702,13.462,33999227,1593,26.102,0.00000,-0.01416,-0.97998,-1.979980,-19.416971,-0.427,0.183,-0.183,2
2026-05-14T18:00:26.715,13.475,34014967,1594,26.087,0.00000,-0.01563,-0.98145,-1.981450,-19.431387,-0.427,0.183,-0.122,2
2026-05-14T18:00:26.741,13.501,34040236,1595,26.117,-0.00195,-0.01514,-0.98096,-1.980960,-19.426581,-0.488,0.183,-0.122,2
2026-05-14T18:00:26.765,13.525,34060220,1596,26.117,-0.00146,-0.01416,-0.97900,-1.979000,-19.407360,-0.305,0.183,-0.122,2
2026-05-14T18:00:26.778,13.538,34075956,1597,26.117,-0.00098,-0.01367,-0.97998,-1.979980,-19.416971,-0.305,0.183,-0.122,2
2026-05-14T18:00:26.803,13.563,34101233,1598,26.117,-0.00195,-0.01465,-0.97803,-1.978030,-19.397848,0.000,0.183,-0.122,2
2026-05-14T18:00:26.828,13.588,34121227,1599,26.132,-0.00098,-0.01514,-0.97998,-1.979980,-19.416971,0.183,0.183,-0.122,2
2026-05-14T18:00:26.841,13.600,34136954,1600,26.132,-0.00244,-0.01465,-0.98047,-1.980470,-19.421776,0.122,0.183,-0.122,2
2026-05-14T18:00:26.921,13.680,34162228,1601,26.102,-0.00098,-0.01416,-0.98047,-1.980470,-19.421776,-0.366,0.183,-0.183,2
2026-05-14T18:00:26.921,13.681,34182220,1602,26.102,-0.00146,-0.01318,-0.97900,-1.979000,-19.407360,-0.305,0.122,-0.122,2
2026-05-14T18:00:26.921,13.681,34197956,1603,26.132,-0.00098,-0.01318,-0.97949,-1.979490,-19.412166,0.000,0.183,-0.122,2
2026-05-14T18:00:26.928,13.687,34223234,1604,26.147,-0.00049,-0.01563,-0.97949,-1.979490,-19.412166,0.183,0.122,-0.183,2
2026-05-14T18:00:26.949,13.708,34243227,1605,26.162,-0.00146,-0.01514,-0.97900,-1.979000,-19.407360,0.549,0.183,-0.122,2
2026-05-14T18:00:26.961,13.721,34258967,1606,26.117,-0.00049,-0.01416,-0.97852,-1.978520,-19.402653,1.220,0.244,-0.122,2
2026-05-14T18:00:26.986,13.746,34284236,1607,26.147,-0.00049,-0.01611,-0.98242,-1.982420,-19.440899,0.549,0.244,-0.244,2
2026-05-14T18:00:27.008,13.767,34304220,1608,26.147,-0.00146,-0.01660,-0.98242,-1.982420,-19.440899,0.183,0.183,-0.183,2
2026-05-14T18:00:27.020,13.780,34319956,1609,26.147,-0.00049,-0.01563,-0.98047,-1.980470,-19.421776,-0.183,0.183,-0.122,2
2026-05-14T18:00:27.054,13.814,34345226,1610,26.117,-0.00049,-0.01660,-0.97949,-1.979490,-19.412166,-0.122,0.122,-0.183,2
2026-05-14T18:00:27.065,13.825,34365227,1611,26.147,-0.00049,-0.01563,-0.98047,-1.980470,-19.421776,-0.122,0.122,-0.183,2
2026-05-14T18:00:27.089,13.849,34380954,1612,26.147,-0.00195,-0.01563,-0.98047,-1.980470,-19.421776,0.122,0.183,-0.122,2
2026-05-14T18:00:27.127,13.886,34417959,1613,26.147,-0.00098,-0.01514,-0.97949,-1.979490,-19.412166,-0.061,0.122,-0.183,2
2026-05-14T18:00:27.150,13.909,34443233,1614,26.162,-0.00195,-0.01660,-0.97852,-1.978520,-19.402653,-0.061,0.122,-0.122,2
2026-05-14T18:00:27.174,13.934,34463220,1615,26.162,-0.00195,-0.01563,-1.75049,-2.750490,-26.973093,-0.061,-0.061,-0.061,2
2026-05-14T18:00:27.187,13.947,34477969,1616,26.147,-0.00195,-0.01563,-0.98047,-1.980470,-19.421776,-0.244,0.183,-0.122,2
2026-05-14T18:00:27.212,13.972,34504226,1617,26.147,-0.00098,-0.01563,-0.98047,-1.980470,-19.421776,-0.732,0.183,-0.122,2
2026-05-14T18:00:27.225,13.984,34524209,1618,26.162,-0.00098,-0.01465,-0.98047,-1.980470,-19.421776,-0.549,0.183,-0.183,2
2026-05-14T18:00:27.250,14.009,34539959,1619,26.208,-0.00146,-0.01514,-0.97949,-1.979490,-19.412166,-0.305,0.183,-0.183,2
2026-05-14T18:00:27.275,14.034,34565233,1620,26.193,-0.00195,-0.01611,-0.97900,-1.979000,-19.407360,-0.244,0.183,-0.122,2
2026-05-14T18:00:27.288,14.047,34585220,1621,26.178,-0.00146,-0.01563,-0.97998,-1.979980,-19.416971,-0.183,0.244,-0.061,2
2026-05-14T18:00:27.310,14.069,34599957,1622,26.162,-0.00049,-0.01563,-0.97998,-1.979980,-19.416971,0.000,0.183,-0.061,2
2026-05-14T18:00:27.335,14.095,34626211,1623,26.208,-0.00146,-0.01563,-0.98096,-1.980960,-19.426581,0.244,0.183,-0.122,2
2026-05-14T18:00:27.348,14.107,34646204,1624,26.193,-0.00098,-0.01563,-0.98096,-1.980960,-19.426581,0.122,0.183,-0.183,2
2026-05-14T18:00:27.401,14.160,34660945,1625,26.208,-0.00146,-0.01660,-0.98242,-1.982420,-19.440899,-0.061,0.183,-0.122,2
2026-05-14T18:00:27.413,14.172,34686227,1626,26.178,-0.00049,-0.01563,-0.97949,-1.979490,-19.412166,-0.183,0.183,-0.183,2
2026-05-14T18:00:27.418,14.178,34706208,1627,26.208,-0.00098,-0.01660,-0.97949,-1.979490,-19.412166,0.244,0.183,-0.122,2
2026-05-14T18:00:27.426,14.186,34721949,1628,26.178,-0.00098,-0.01611,-0.98096,-1.980960,-19.426581,0.122,0.244,-0.122,2
2026-05-14T18:00:27.453,14.212,34747210,1629,26.193,-0.00195,-0.01660,-0.98145,-1.981450,-19.431387,-0.244,0.183,-0.122,2
2026-05-14T18:00:27.479,14.238,34767209,1630,26.193,-0.00195,-0.01563,-0.98242,-1.982420,-19.440899,-0.366,0.183,-0.122,2
2026-05-14T18:00:27.500,14.260,34782947,1631,26.208,-0.00146,-0.01563,-0.97998,-1.979980,-19.416971,-0.183,0.183,-0.183,2
2026-05-14T18:00:27.514,14.273,34808207,1632,26.208,0.00000,-0.01660,-0.98096,-1.980960,-19.426581,0.000,0.183,-0.122,2
2026-05-14T18:00:27.528,14.288,34828204,1633,26.208,-0.00244,-0.01611,-0.98145,-1.981450,-19.431387,0.122,0.183,-0.122,2
2026-05-14T18:00:27.554,14.314,34842943,1634,26.178,-0.00146,-0.01660,-0.98096,-1.980960,-19.426581,-0.061,0.244,-0.061,2
2026-05-14T18:00:27.580,14.339,34868210,1635,26.253,-0.00146,-0.01611,-0.98145,-1.981450,-19.431387,-0.122,0.183,-0.183,2
2026-05-14T18:00:27.592,14.352,34888212,1636,26.223,-0.00049,-0.01611,-0.98047,-1.980470,-19.421776,-0.305,0.122,-0.183,2
2026-05-14T18:00:27.605,14.365,34903950,1637,26.238,-0.00195,-0.01660,-0.98193,-1.981930,-19.436094,-0.122,0.183,-0.122,2
2026-05-14T18:00:27.630,14.390,34929211,1638,26.208,-0.00195,-0.01563,-0.98096,-1.980960,-19.426581,0.061,0.183,-0.122,2
2026-05-14T18:00:27.655,14.415,34949212,1639,26.208,-0.00098,-0.01563,-0.98096,-1.980960,-19.426581,0.122,0.183,-0.061,2
2026-05-14T18:00:27.668,14.427,34964951,1640,26.208,-0.00146,-0.01807,-0.98145,-1.981450,-19.431387,0.000,0.183,-0.122,2
2026-05-14T18:00:27.691,14.451,34990228,1641,26.223,-0.00098,-0.01611,-0.97998,-1.979980,-19.416971,0.000,0.183,-0.122,2
2026-05-14T18:00:27.716,14.476,35010212,1642,26.208,-0.00049,-0.01709,-0.98145,-1.981450,-19.431387,0.183,0.183,-0.122,2
2026-05-14T18:00:27.729,14.488,35025965,1643,26.238,-0.00146,-0.01660,-0.97998,-1.979980,-19.416971,0.183,0.122,-0.183,2
2026-05-14T18:00:27.754,14.513,35051235,1644,26.238,-0.00146,-0.01758,-0.98145,-1.981450,-19.431387,0.122,0.183,-0.122,2
2026-05-14T18:00:27.779,14.539,35071221,1645,26.253,-0.00098,-0.01611,-0.97998,-1.979980,-19.416971,0.000,0.183,-0.183,2
2026-05-14T18:00:27.791,14.551,35086956,1646,26.238,-0.00098,-0.01611,-0.98096,-1.980960,-19.426581,-0.122,0.183,-0.122,2
2026-05-14T18:00:27.817,14.577,35112229,1647,26.253,-0.00146,-0.01660,-0.98096,-1.980960,-19.426581,-0.244,0.183,-0.122,2
2026-05-14T18:00:27.842,14.602,35132221,1648,26.238,-0.00195,-0.01660,-0.98047,-1.980470,-19.421776,-0.122,0.122,-0.122,2
2026-05-14T18:00:27.855,14.614,35147969,1649,26.268,-0.00098,-0.01611,-0.98047,-1.980470,-19.421776,0.061,0.183,-0.183,2
2026-05-14T18:00:27.918,14.678,35173234,1650,26.238,-0.00146,-0.01660,-0.98096,-1.980960,-19.426581,0.061,0.122,-0.183,2
2026-05-14T18:00:27.919,14.679,35193221,1651,26.268,-0.00049,-0.01807,-0.98145,-1.981450,-19.431387,-0.366,0.183,-0.122,2
2026-05-14T18:00:27.919,14.679,35208956,1652,26.238,-0.00195,-0.01807,-0.98096,-1.980960,-19.426581,-0.427,0.183,-0.122,2
2026-05-14T18:00:27.936,14.695,35234217,1653,26.253,-0.00195,-0.01563,-0.97998,-1.979980,-19.416971,-0.244,0.122,-0.122,2
2026-05-14T18:00:27.961,14.720,35254221,1654,26.253,-0.00244,-0.01563,-0.97803,-1.978030,-19.397848,0.122,0.244,-0.061,2
2026-05-14T18:00:27.973,14.733,35269968,1655,26.238,0.00000,-0.01709,-0.97998,-1.979980,-19.416971,0.183,0.183,-0.122,2
2026-05-14T18:00:27.998,14.758,35295220,1656,26.253,-0.00098,-0.01709,-0.98047,-1.980470,-19.421776,0.000,0.122,-0.122,2
2026-05-14T18:00:28.024,14.783,35315221,1657,26.268,-0.00146,-0.01514,-0.98145,-1.981450,-19.431387,-0.122,0.122,-0.183,2
2026-05-14T18:00:28.036,14.796,35330955,1658,26.238,-0.00146,-0.01709,-0.97998,-1.979980,-19.416971,-0.061,0.183,-0.183,2
2026-05-14T18:00:28.061,14.821,35356209,1659,26.268,-0.00049,-0.01709,-0.98096,-1.980960,-19.426581,0.366,0.244,-0.061,2
2026-05-14T18:00:28.087,14.846,35376205,1660,26.268,-0.00146,-0.01709,-0.98145,-1.981450,-19.431387,0.061,0.183,-0.122,2
2026-05-14T18:00:28.099,14.859,35390931,1661,26.298,-0.00049,-0.01611,-0.98145,-1.981450,-19.431387,-0.244,0.183,-0.122,2
2026-05-14T18:00:28.135,14.895,35427953,1662,26.298,-0.00146,-0.01709,-0.97949,-1.979490,-19.412166,-0.122,0.183,-0.183,2
2026-05-14T18:00:28.160,14.920,35453220,1663,26.313,-0.00244,-0.01709,-0.97998,-1.979980,-19.416971,-0.061,0.183,-0.122,2
2026-05-14T18:00:28.174,14.933,35473211,1664,26.298,-0.00195,-0.01660,-0.98145,-1.981450,-19.431387,0.061,0.183,-0.122,2
2026-05-14T18:00:28.196,14.956,35488931,1665,26.329,-0.00098,-0.01709,-0.98096,-1.980960,-19.426581,0.244,0.183,-0.183,2
2026-05-14T18:00:28.222,14.981,35514209,1666,26.253,-0.00049,-0.01709,-0.98096,-1.980960,-19.426581,0.061,0.183,-0.061,2
2026-05-14T18:00:28.245,15.005,35534213,1667,26.298,-0.00146,-0.01758,-0.98145,-1.981450,-19.431387,-0.122,0.183,-0.122,2
2026-05-14T18:00:28.259,15.018,35548942,1668,26.313,-0.00146,-0.01709,-0.98047,-1.980470,-19.421776,0.000,0.183,-0.122,2
2026-05-14T18:00:28.283,15.043,35575199,1669,26.298,-0.00195,-0.01709,-0.97998,-1.979980,-19.416971,0.305,0.183,-0.122,2
2026-05-14T18:00:28.296,15.056,35595198,1670,26.298,-0.00098,-0.01660,-0.98047,-1.980470,-19.421776,0.427,0.183,-0.122,2
2026-05-14T18:00:28.321,15.080,35609945,1671,26.344,-0.00098,-0.01807,-0.98193,-1.981930,-19.436094,0.183,0.183,-0.122,2
2026-05-14T18:00:28.345,15.104,35635212,1672,26.359,-0.00098,-0.01807,-0.98096,-1.980960,-19.426581,-0.183,0.183,-0.122,2
2026-05-14T18:00:28.361,15.121,35655208,1673,26.359,-0.00244,-0.01709,-0.98096,-1.980960,-19.426581,0.061,0.183,-0.122,2
2026-05-14T18:00:28.410,15.170,35670962,1674,26.359,-0.00098,-0.01709,-0.98096,-1.980960,-19.426581,0.061,0.183,-0.122,2
2026-05-14T18:00:28.411,15.170,35696234,1675,26.359,-0.00146,-0.01807,-0.98193,-1.981930,-19.436094,0.000,0.183,-0.122,2
2026-05-14T18:00:28.424,15.184,35716216,1676,26.344,-0.00195,-0.01758,-0.97998,-1.979980,-19.416971,-0.244,0.122,-0.183,2
2026-05-14T18:00:28.437,15.197,35731961,1677,26.344,-0.00146,-0.01709,-0.98047,-1.980470,-19.421776,-0.183,0.183,-0.183,2
2026-05-14T18:00:28.462,15.222,35757212,1678,26.359,-0.00146,-0.01758,-0.98047,-1.980470,-19.421776,-0.061,0.183,-0.183,2
2026-05-14T18:00:28.487,15.247,35777212,1679,26.359,-0.00146,-0.01709,-0.97998,-1.979980,-19.416971,-0.183,0.122,-0.183,2
2026-05-14T18:00:28.500,15.259,35792938,1680,26.329,-0.00244,-0.01758,-0.97754,-1.977540,-19.393043,-0.183,0.183,-0.122,2
2026-05-14T18:00:28.525,15.285,35818220,1681,26.359,-0.00098,-0.01904,-0.98193,-1.981930,-19.436094,-0.305,0.183,-0.183,2
2026-05-14T18:00:28.550,15.310,35838209,1682,26.344,-0.00098,-0.01807,-0.97998,-1.979980,-19.416971,-0.305,0.183,-0.183,2
2026-05-14T18:00:28.563,15.322,35853947,1683,26.389,-0.00195,-0.01807,-0.97998,-1.979980,-19.416971,-0.183,0.183,-0.183,2
2026-05-14T18:00:28.588,15.348,35879207,1684,26.344,-0.00146,-0.01758,-0.97998,-1.979980,-19.416971,-0.061,0.183,-0.122,2
2026-05-14T18:00:28.611,15.370,35899212,1685,26.359,-0.00195,-0.01709,-0.98145,-1.981450,-19.431387,-0.122,0.183,-0.122,2
2026-05-14T18:00:28.622,15.381,35914938,1686,26.359,-0.00098,-0.01807,-0.98047,-1.980470,-19.421776,-0.122,0.244,-0.183,2
2026-05-14T18:00:28.645,15.404,35940220,1687,26.359,-0.00098,-0.01758,-0.98047,-1.980470,-19.421776,-0.183,0.122,-0.122,2
2026-05-14T18:00:28.669,15.429,35960209,1688,26.389,-0.00098,-0.01660,-0.97998,-1.979980,-19.416971,-0.122,0.122,-0.183,2
2026-05-14T18:00:28.680,15.439,35975960,1689,26.374,-0.00146,-0.01758,-0.98145,-1.981450,-19.431387,0.000,0.122,-0.122,2
2026-05-14T18:00:28.703,15.463,36001207,1690,26.374,-0.00098,-0.01660,-0.98096,-1.980960,-19.426581,-0.061,0.122,-0.122,2
2026-05-14T18:00:28.726,15.486,36021212,1691,26.419,-0.00146,-0.01758,-0.97998,-1.979980,-19.416971,-0.122,0.183,-0.122,2
2026-05-14T18:00:28.739,15.499,36036938,1692,26.404,-0.00146,-0.01807,-0.97900,-1.979000,-19.407360,-0.061,0.183,-0.122,2
2026-05-14T18:00:28.764,15.524,36062220,1693,26.404,-0.00049,-0.01758,-0.98096,-1.980960,-19.426581,0.061,0.122,-0.122,2
2026-05-14T18:00:28.789,15.549,36082209,1694,26.389,-0.00146,-0.01758,-0.98145,-1.981450,-19.431387,-0.244,0.183,-0.061,2
2026-05-14T18:00:28.802,15.561,36097948,1695,26.404,-0.00146,-0.01807,-0.98145,-1.981450,-19.431387,-0.366,0.183,-0.183,2
2026-05-14T18:00:28.827,15.587,36123212,1696,26.419,-0.00244,-0.01758,-0.97949,-1.979490,-19.412166,-0.305,0.183,-0.122,2
2026-05-14T18:00:28.852,15.612,36143212,1697,26.419,-0.00146,-0.01807,-0.98047,-1.980470,-19.421776,0.000,0.244,-0.122,2
2026-05-14T18:00:28.915,15.675,36158965,1698,26.404,-0.00146,-0.01807,-0.98145,-1.981450,-19.431387,0.000,0.183,-0.122,2
2026-05-14T18:00:28.916,15.675,36184228,1699,26.389,-0.00146,-0.01758,-0.98145,-1.981450,-19.431387,-0.183,0.183,-0.122,2
2026-05-14T18:00:28.916,15.676,36204220,1700,26.389,-0.00195,-0.01904,-0.98096,-1.980960,-19.426581,-0.183,0.183,-0.183,2
2026-05-14T18:00:28.921,15.680,36219956,1701,26.374,-0.00146,-0.01758,-0.97998,-1.979980,-19.416971,-0.122,0.183,-0.183,2
2026-05-14T18:00:28.945,15.705,36245218,1702,26.434,-0.00098,-0.01709,-0.98145,-1.981450,-19.431387,0.000,0.183,-0.122,2
2026-05-14T18:00:28.970,15.730,36265227,1703,26.419,-0.00146,-0.01904,-0.98047,-1.980470,-19.421776,-0.061,0.183,-0.122,2
2026-05-14T18:00:28.983,15.742,36280967,1704,26.449,-0.00146,-0.01807,-0.98047,-1.980470,-19.421776,-0.183,0.183,-0.122,2
2026-05-14T18:00:29.008,15.767,36306228,1705,26.404,-0.00146,-0.01758,-0.98096,-1.980960,-19.426581,-0.305,0.183,-0.183,2
2026-05-14T18:00:29.030,15.790,36326220,1706,26.434,-0.00244,-0.01758,-0.98047,-1.980470,-19.421776,-0.305,0.183,-0.183,2
2026-05-14T18:00:29.043,15.802,36341970,1707,26.434,-0.00098,-0.01709,-0.97949,-1.979490,-19.412166,-0.183,0.183,-0.122,2
2026-05-14T18:00:29.068,15.828,36367226,1708,26.419,-0.00195,-0.01660,-0.98096,-1.980960,-19.426581,-0.122,0.183,-0.122,2
2026-05-14T18:00:29.093,15.853,36387227,1709,26.419,-0.00146,-0.01807,-0.98047,-1.980470,-19.421776,0.000,0.183,-0.122,2
2026-05-14T18:00:29.108,15.867,36402954,1710,26.449,-0.00146,-0.01855,-0.98047,-1.980470,-19.421776,-0.061,0.244,-0.183,2
2026-05-14T18:00:29.143,15.903,36439973,1711,26.434,-0.00244,-0.01709,-0.98145,-1.981450,-19.431387,0.000,0.183,-0.183,2
2026-05-14T18:00:29.166,15.925,36465213,1712,26.449,-0.00146,-0.01807,-0.98096,-1.980960,-19.426581,0.000,0.183,-0.122,2
2026-05-14T18:00:29.189,15.949,36485220,1713,26.434,-0.00342,-0.01758,-0.98145,-1.981450,-19.431387,0.061,0.183,-0.183,2
2026-05-14T18:00:29.201,15.961,36499956,1714,26.434,-0.00146,-0.01855,-0.98145,-1.981450,-19.431387,-0.122,0.183,-0.122,2
2026-05-14T18:00:29.227,15.986,36526211,1715,26.464,-0.00146,-0.01758,-0.98096,-1.980960,-19.426581,-0.305,0.183,-0.122,2
2026-05-14T18:00:29.252,16.011,36546211,1716,26.419,-0.00146,-0.01758,-0.98096,-1.980960,-19.426581,-0.305,0.183,-0.183,2
2026-05-14T18:00:29.264,16.024,36561960,1717,26.449,-0.00049,-0.00049,-0.00049,-1.000490,-9.811455,-0.061,-0.061,-0.061,2
2026-05-14T18:00:29.289,16.049,36587213,1718,26.449,-0.00146,-0.01709,-0.98047,-1.980470,-19.421776,0.000,0.244,-0.122,2
2026-05-14T18:00:29.315,16.074,36607210,1719,26.449,-0.00146,-0.00049,-0.00049,-1.000490,-9.811455,-0.061,-0.061,-0.061,2
2026-05-14T18:00:29.327,16.087,36621944,1720,26.464,-0.00098,-0.01807,-0.98145,-1.981450,-19.431387,-0.061,0.183,-0.122,2
2026-05-14T18:00:29.352,16.112,36648211,1721,26.449,-0.00049,-0.01807,-0.98145,-1.981450,-19.431387,-0.122,0.183,-0.183,2
2026-05-14T18:00:29.419,16.179,36668209,1722,26.479,-0.00195,-0.01807,-0.98096,-1.980960,-19.426581,-0.061,0.183,-0.183,2
2026-05-14T18:00:29.420,16.179,36683959,1723,26.495,-0.00146,-0.01807,-0.97998,-1.979980,-19.416971,0.000,0.183,-0.122,2
2026-05-14T18:00:29.420,16.180,36709233,1724,26.464,-0.00098,-0.01709,-0.98145,-1.981450,-19.431387,-0.061,0.183,-0.183,2
2026-05-14T18:00:29.431,16.191,36729220,1725,26.479,-0.00146,-0.01904,-0.97998,-1.979980,-19.416971,0.061,0.244,-0.122,2
2026-05-14T18:00:29.453,16.213,36743957,1726,26.479,-0.00098,-0.01855,-0.98145,-1.981450,-19.431387,0.000,0.183,-0.122,2
2026-05-14T18:00:29.479,16.239,36770231,1727,26.479,-0.00146,-0.01758,-0.98291,-1.982910,-19.445704,0.061,0.122,-0.183,2
2026-05-14T18:00:29.502,16.261,36790219,1728,26.449,-0.00293,-0.01807,-0.97949,-1.979490,-19.412166,-0.183,0.183,-0.122,2
2026-05-14T18:00:29.513,16.272,36805959,1729,26.495,-0.00098,-0.01660,-0.98193,-1.981930,-19.436094,-0.305,0.183,-0.122,2
2026-05-14T18:00:29.538,16.298,36831213,1730,26.464,-0.00146,-0.01807,-0.97998,-1.979980,-19.416971,-0.244,0.183,-0.122,2
2026-05-14T18:00:29.563,16.322,36851220,1731,26.495,-0.00195,-0.01855,-0.97949,-1.979490,-19.412166,0.000,0.244,-0.183,2
2026-05-14T18:00:29.575,16.335,36865957,1732,26.510,-0.00098,-0.01807,-0.98145,-1.981450,-19.431387,0.000,0.122,-0.122,2
2026-05-14T18:00:29.601,16.360,36892226,1733,26.495,-0.00146,-0.01855,-0.98242,-1.982420,-19.440899,-0.183,0.183,-0.183,2
2026-05-14T18:00:29.614,16.373,36912219,1734,26.495,-0.00146,-0.01855,-0.98047,-1.980470,-19.421776,-0.122,0.122,-0.122,2
2026-05-14T18:00:29.638,16.398,36927946,1735,26.495,-0.00146,-0.01709,-0.98047,-1.980470,-19.421776,0.122,0.183,-0.122,2
2026-05-14T18:00:29.664,16.423,36953210,1736,26.510,0.00000,-0.01855,-0.98145,-1.981450,-19.431387,0.061,0.183,-0.183,2
2026-05-14T18:00:29.676,16.436,36973202,1737,26.510,-0.00146,-0.01855,-0.98193,-1.981930,-19.436094,-0.061,0.183,-0.122,2
2026-05-14T18:00:29.689,16.449,36987959,1738,26.540,-0.00049,-0.01807,-0.98145,-1.981450,-19.431387,-0.183,0.183,-0.122,2
2026-05-14T18:00:29.714,16.474,37014207,1739,26.540,-0.00195,-0.01855,-0.98096,-1.980960,-19.426581,-0.183,0.122,-0.183,2
2026-05-14T18:00:29.739,16.499,37034212,1740,26.525,-0.00195,-0.01904,-0.98193,-1.981930,-19.436094,-0.122,0.183,-0.183,2
2026-05-14T18:00:29.752,16.512,37048939,1741,26.540,-0.00146,-0.01807,-0.98145,-1.981450,-19.431387,0.000,0.183,-0.122,2
2026-05-14T18:00:29.777,16.537,37075210,1742,26.540,-0.00098,-0.01904,-0.98291,-1.982910,-19.445704,0.000,0.183,-0.122,2
2026-05-14T18:00:29.802,16.562,37095213,1743,26.495,-0.00195,-0.01807,-0.98096,-1.980960,-19.426581,-0.122,0.183,-0.183,2
2026-05-14T18:00:29.815,16.574,37109941,1744,26.525,-0.00244,-0.01709,-0.98096,-1.980960,-19.426581,-0.122,0.122,-0.183,2
2026-05-14T18:00:29.840,16.600,37136227,1745,26.525,-0.00146,-0.01807,-0.98096,-1.980960,-19.426581,-0.061,0.183,-0.183,2
2026-05-14T18:00:29.915,16.675,37156208,1746,26.570,0.00000,-0.01904,-0.97998,-1.979980,-19.416971,-0.061,0.183,-0.183,2
2026-05-14T18:00:29.915,16.675,37171945,1747,26.555,-0.00244,-0.01807,-0.98047,-1.980470,-19.421776,-0.122,0.183,-0.122,2
2026-05-14T18:00:29.916,16.676,37197210,1748,26.555,-0.00049,-0.01709,-0.98145,-1.981450,-19.431387,-0.244,0.183,-0.122,2
2026-05-14T18:00:29.921,16.681,37217218,1749,26.540,-0.00049,-0.01855,-0.98145,-1.981450,-19.431387,-0.244,0.183,-0.183,2
2026-05-14T18:00:29.944,16.704,37232972,1750,26.540,-0.00098,-0.01855,-0.98242,-1.982420,-19.440899,-0.061,0.183,-0.122,2
2026-05-14T18:00:29.969,16.729,37258230,1751,26.555,-0.00098,-0.01855,-0.98145,-1.981450,-19.431387,-0.244,0.183,-0.183,2
2026-05-14T18:00:29.982,16.742,37278229,1752,26.540,-0.00195,-0.01904,-0.98096,-1.980960,-19.426581,-0.305,0.183,-0.183,2
2026-05-14T18:00:29.995,16.754,37293955,1753,26.540,-0.00244,-0.01807,-0.98096,-1.980960,-19.426581,-0.183,0.122,-0.122,2
2026-05-14T18:00:30.020,16.780,37319219,1754,26.540,-0.00098,-0.01807,-0.98096,-1.980960,-19.426581,-0.061,0.183,-0.183,2
2026-05-14T18:00:30.045,16.805,37339218,1755,26.570,-0.00195,-0.01807,-0.98047,-1.980470,-19.421776,0.000,0.183,-0.183,2
2026-05-14T18:00:30.058,16.817,37354959,1756,26.555,-0.00098,-0.01904,-0.98096,-1.980960,-19.426581,-0.122,0.183,-0.183,2
2026-05-14T18:00:30.083,16.843,37380230,1757,26.540,-0.00195,-0.01855,-0.98145,-1.981450,-19.431387,-0.183,0.183,-0.122,2
2026-05-14T18:00:30.110,16.870,37400229,1758,26.570,-0.00049,-0.01660,-0.98096,-1.980960,-19.426581,0.061,0.244,-0.122,2
2026-05-14T18:00:30.120,16.880,37415954,1759,26.540,-0.00098,-0.01758,-0.98096,-1.980960,-19.426581,-0.122,0.183,-0.183,2
2026-05-14T18:00:30.157,16.917,37452959,1760,26.585,-0.00098,-0.01709,-0.98145,-1.981450,-19.431387,-0.427,0.183,-0.183,2
2026-05-14T18:00:30.181,16.940,37478213,1761,26.570,-0.00195,-0.01758,-0.98047,-1.980470,-19.421776,-0.244,0.183,-0.183,2
2026-05-14T18:00:30.204,16.963,37498212,1762,26.585,-0.00098,-0.01758,-0.98047,-1.980470,-19.421776,0.122,0.183,-0.061,2
2026-05-14T18:00:30.216,16.976,37513944,1763,26.540,-0.00146,-0.01855,-0.98193,-1.981930,-19.436094,-0.244,0.183,-0.122,2
2026-05-14T18:00:30.240,16.999,37539231,1764,26.570,-0.00049,-0.01904,-0.98145,-1.981450,-19.431387,-0.305,0.183,-0.183,2
2026-05-14T18:00:30.265,17.024,37559221,1765,26.615,-0.00098,-0.01855,-0.98145,-1.981450,-19.431387,-0.183,0.183,-0.183,2
2026-05-14T18:00:30.276,17.036,37574958,1766,26.600,-0.00098,-0.01709,-0.98145,-1.981450,-19.431387,0.061,0.183,-0.122,2
2026-05-14T18:00:30.300,17.059,37600230,1767,26.600,-0.00244,-0.01758,-0.98047,-1.980470,-19.421776,0.061,0.183,-0.122,2
2026-05-14T18:00:30.324,17.084,37620228,1768,26.600,-0.00146,-0.01709,-0.98047,-1.980470,-19.421776,0.000,0.183,-0.122,2
2026-05-14T18:00:30.337,17.096,37635958,1769,26.600,-0.00098,-0.01758,-0.98145,-1.981450,-19.431387,-0.061,0.122,-0.183,2
2026-05-14T18:00:30.407,17.167,37661211,1770,26.600,-0.00098,-0.01855,-0.98096,-1.980960,-19.426581,-0.122,0.183,-0.183,2
2026-05-14T18:00:30.419,17.179,37681211,1771,26.600,-0.00195,-0.01855,-0.97998,-1.979980,-19.416971,-0.183,0.183,-0.183,2
2026-05-14T18:00:30.420,17.180,37696958,1772,26.600,-0.00195,-0.01709,-0.98047,-1.980470,-19.421776,-0.305,0.183,-0.183,2
2026-05-14T18:00:30.431,17.191,37722205,1773,26.570,-0.00146,-0.01660,-0.98193,-1.981930,-19.436094,-0.122,0.183,-0.183,2
2026-05-14T18:00:30.444,17.204,37742208,1774,26.615,-0.00195,-0.01904,-0.98096,-1.980960,-19.426581,0.000,0.244,-0.122,2
2026-05-14T18:00:30.469,17.229,37757938,1775,26.615,-0.00195,-0.01807,-0.98047,-1.980470,-19.421776,0.122,0.183,-0.183,2
2026-05-14T18:00:30.493,17.253,37783209,1776,26.600,-0.00146,-0.01953,-0.98145,-1.981450,-19.431387,-0.061,0.183,-0.183,2
2026-05-14T18:00:30.506,17.266,37803213,1777,26.615,-0.00146,-0.01855,-0.98096,-1.980960,-19.426581,-0.305,0.183,-0.183,2
2026-05-14T18:00:30.519,17.279,37817955,1778,26.630,-0.00244,-0.01709,-0.98096,-1.980960,-19.426581,-0.061,0.183,-0.183,2
2026-05-14T18:00:30.544,17.304,37844220,1779,26.615,-0.00195,-0.01855,-0.98047,-1.980470,-19.421776,0.183,0.183,-0.183,2
2026-05-14T18:00:30.569,17.329,37864210,1780,26.630,-0.00098,-0.01855,-0.98096,-1.980960,-19.426581,0.122,0.183,-0.183,2
2026-05-14T18:00:30.582,17.341,37879946,1781,26.646,-0.00244,-0.01758,-0.98047,-1.980470,-19.421776,0.000,0.183,-0.183,2
2026-05-14T18:00:30.609,17.368,37905220,1782,26.630,-0.00098,-0.01758,-0.98047,-1.980470,-19.421776,-0.061,0.183,-0.183,2
2026-05-14T18:00:30.632,17.392,37925209,1783,26.630,-0.00195,-0.01904,-0.98145,-1.981450,-19.431387,-0.061,0.183,-0.183,2
2026-05-14T18:00:30.645,17.404,37940973,1784,26.646,-0.00098,-0.01953,-0.97998,-1.979980,-19.416971,-0.061,0.122,-0.183,2
2026-05-14T18:00:30.670,17.430,37966210,1785,26.615,-0.00146,-0.02051,-0.98193,-1.981930,-19.436094,-0.244,0.183,-0.183,2
2026-05-14T18:00:30.695,17.455,37986228,1786,26.630,-0.00098,-0.01807,-0.98047,-1.980470,-19.421776,-0.122,0.183,-0.183,2
2026-05-14T18:00:30.706,17.465,38000959,1787,26.676,-0.00098,-0.01758,-0.97998,-1.979980,-19.416971,-0.183,0.183,-0.183,2
2026-05-14T18:00:30.728,17.488,38027212,1788,26.646,-0.00195,-0.01807,-0.98096,-1.980960,-19.426581,0.061,0.183,-0.183,2
2026-05-14T18:00:30.751,17.511,38047202,1789,26.630,-0.00098,-0.01904,-0.98145,-1.981450,-19.431387,0.244,0.122,-0.183,2
2026-05-14T18:00:30.764,17.523,38061944,1790,26.646,-0.00146,-0.01953,-0.98096,-1.980960,-19.426581,0.366,0.183,-0.183,2
2026-05-14T18:00:30.789,17.549,38087209,1791,26.676,-0.00146,-0.01904,-0.98096,-1.980960,-19.426581,0.122,0.183,-0.183,2
2026-05-14T18:00:30.813,17.572,38107205,1792,26.630,-0.00195,-0.01953,-0.98047,-1.980470,-19.421776,0.122,0.122,-0.183,2
2026-05-14T18:00:30.825,17.584,38121944,1793,26.676,-0.00049,-0.01953,-0.98047,-1.980470,-19.421776,0.305,0.183,-0.183,2
2026-05-14T18:00:30.848,17.607,38147219,1794,26.691,-0.00195,-0.02002,-0.98193,-1.981930,-19.436094,0.183,0.244,-0.183,2
2026-05-14T18:00:30.915,17.675,38167210,1795,26.615,-0.00049,-0.01953,-0.98242,-1.982420,-19.440899,-0.122,0.183,-0.183,2
2026-05-14T18:00:30.916,17.675,38182946,1796,26.691,-0.00146,-0.01904,-0.98193,-1.981930,-19.436094,-0.305,0.183,-0.183,2
2026-05-14T18:00:30.921,17.681,38208212,1797,26.661,-0.00146,-0.01904,-0.98291,-1.982910,-19.445704,-0.305,0.183,-0.122,2
2026-05-14T18:00:30.931,17.691,38228209,1798,26.691,-0.00195,-0.01953,-0.98096,-1.980960,-19.426581,-0.061,0.244,-0.183,2
2026-05-14T18:00:30.944,17.703,38243942,1799,26.646,-0.00098,-0.01855,-0.98047,-1.980470,-19.421776,-0.244,0.183,-0.183,2
2026-05-14T18:00:30.969,17.729,38269211,1800,26.676,-0.00293,-0.02051,-0.98242,-1.982420,-19.440899,-0.183,0.183,-0.183,2
2026-05-14T18:00:30.994,17.754,38289210,1801,26.706,-0.00049,-0.01904,-0.97998,-1.979980,-19.416971,-0.061,0.183,-0.122,2
2026-05-14T18:00:31.007,17.766,38304945,1802,26.706,-0.00049,-0.01953,-0.98242,-1.982420,-19.440899,-0.061,0.183,-0.183,2
2026-05-14T18:00:31.030,17.790,38330211,1803,26.691,0.00000,-0.01953,-0.98047,-1.980470,-19.421776,-0.183,0.183,-0.122,2
2026-05-14T18:00:31.055,17.815,38350209,1804,26.691,-0.00146,-0.01807,-0.98193,-1.981930,-19.436094,-0.183,0.183,-0.183,2
2026-05-14T18:00:31.067,17.827,38365955,1805,26.691,-0.00195,-0.01953,-0.98193,-1.981930,-19.436094,-0.122,0.183,-0.122,2
2026-05-14T18:00:31.093,17.852,38391211,1806,26.706,-0.00049,-0.02002,-0.98242,-1.982420,-19.440899,-0.122,0.183,-0.122,2
2026-05-14T18:00:31.116,17.876,38411210,1807,26.691,-0.00195,-0.01904,-0.97998,-1.979980,-19.416971,-0.244,0.183,-0.122,2
2026-05-14T18:00:31.141,17.900,38426959,1808,26.736,-0.00049,-0.01904,-0.98193,-1.981930,-19.436094,-0.061,0.244,-0.122,2
2026-05-14T18:00:31.166,17.926,38463950,1809,26.751,-0.00146,-0.01953,-0.98145,-1.981450,-19.431387,-0.244,0.183,-0.183,2
2026-05-14T18:00:31.192,17.952,38489228,1810,26.736,-0.00098,-0.01904,-0.98096,-1.980960,-19.426581,-0.305,0.183,-0.122,2
2026-05-14T18:00:31.215,17.975,38509209,1811,26.721,-0.00146,-0.01904,-0.97998,-1.979980,-19.416971,-0.122,0.183,-0.122,2
2026-05-14T18:00:31.227,17.987,38524956,1812,26.721,-0.00098,-0.02002,-0.97998,-1.979980,-19.416971,0.061,0.183,-0.122,2
2026-05-14T18:00:31.250,18.010,38550232,1813,26.721,-0.00098,-0.02002,-0.98096,-1.980960,-19.426581,-0.061,0.183,-0.183,2
2026-05-14T18:00:31.276,18.035,38570228,1814,26.721,-0.00098,-0.01904,-0.98193,-1.981930,-19.436094,-0.305,0.183,-0.183,2
2026-05-14T18:00:31.288,18.048,38584965,1815,26.751,-0.00146,-0.02002,-0.98047,-1.980470,-19.421776,-0.305,0.183,-0.122,2
2026-05-14T18:00:31.314,18.073,38611228,1816,26.691,-0.00146,-0.01855,-0.98047,-1.980470,-19.421776,-0.122,0.183,-0.183,2
2026-05-14T18:00:31.338,18.098,38631217,1817,26.721,-0.00098,-0.01807,-0.98242,-1.982420,-19.440899,-0.122,0.183,-0.122,2
2026-05-14T18:00:31.351,18.111,38646969,1818,26.766,-0.00098,-0.01904,-0.98145,-1.981450,-19.431387,-0.366,0.122,-0.122,2
2026-05-14T18:00:31.416,18.176,38672207,1819,26.721,-0.00146,-0.01855,-0.97998,-1.979980,-19.416971,-0.366,0.183,-0.183,2
2026-05-14T18:00:31.417,18.176,38692212,1820,26.751,-0.00146,-0.01904,-0.97998,-1.979980,-19.416971,-0.061,0.183,-0.244,2
2026-05-14T18:00:31.422,18.182,38706952,1821,26.721,-0.00098,-0.01953,-0.98145,-1.981450,-19.431387,0.122,0.183,-0.122,2
2026-05-14T18:00:31.443,18.202,38733208,1822,26.721,-0.00146,-0.01855,-0.98096,-1.980960,-19.426581,0.061,0.183,-0.122,2
2026-05-14T18:00:31.454,18.214,38753202,1823,26.751,-0.00098,-0.01807,-0.98047,-1.980470,-19.421776,-0.061,0.183,-0.183,2
2026-05-14T18:00:31.479,18.239,38767958,1824,26.721,-0.00195,-0.01904,-0.97900,-1.979000,-19.407360,0.000,0.183,-0.183,2
2026-05-14T18:00:31.504,18.264,38794231,1825,26.766,-0.00146,-0.01904,-0.98047,-1.980470,-19.421776,0.183,0.183,-0.122,2
2026-05-14T18:00:31.517,18.277,38814219,1826,26.781,-0.00049,-0.01904,-0.98047,-1.980470,-19.421776,0.122,0.183,-0.122,2
2026-05-14T18:00:31.530,18.290,38828958,1827,26.751,-0.00098,-0.01855,-0.98047,-1.980470,-19.421776,-0.061,0.183,-0.122,2
2026-05-14T18:00:31.555,18.315,38855229,1828,26.781,-0.00049,-0.02002,-0.97949,-1.979490,-19.412166,-0.244,0.183,-0.183,2
2026-05-14T18:00:31.579,18.339,38875220,1829,26.781,-0.00146,-0.02002,-0.98145,-1.981450,-19.431387,0.000,0.244,-0.122,2
2026-05-14T18:00:31.591,18.350,38890958,1830,26.766,-0.00146,-0.02002,-0.98145,-1.981450,-19.431387,0.183,0.183,-0.122,2
2026-05-14T18:00:31.627,18.387,38916218,1831,26.781,-0.00146,-0.01953,-0.98145,-1.981450,-19.431387,0.061,0.183,-0.122,2
2026-05-14T18:00:31.640,18.400,38936219,1832,26.812,-0.00146,-0.01904,-0.98193,-1.981930,-19.436094,-0.122,0.122,-0.183,2
2026-05-14T18:00:31.652,18.411,38950958,1833,26.781,-0.00146,-0.01904,-0.98096,-1.980960,-19.426581,0.000,0.183,-0.122,2
2026-05-14T18:00:31.687,18.447,38977216,1834,26.781,-0.00195,-0.01904,-0.98340,-1.983400,-19.450510,-0.061,0.183,-0.183,2
2026-05-14T18:00:31.700,18.460,38997218,1835,26.796,-0.00146,-0.01855,-0.98193,-1.981930,-19.436094,-0.061,0.183,-0.183,2
2026-05-14T18:00:31.713,18.473,39012945,1836,26.796,-0.00146,-0.01855,-0.98193,-1.981930,-19.436094,-0.061,0.183,-0.183,2
2026-05-14T18:00:31.738,18.498,39038210,1837,26.812,-0.00195,-0.01904,-0.98047,-1.980470,-19.421776,0.061,0.183,-0.183,2
2026-05-14T18:00:31.764,18.523,39058203,1838,26.812,-0.00195,-0.02002,-0.98145,-1.981450,-19.431387,0.061,0.183,-0.183,2
2026-05-14T18:00:31.776,18.536,39072945,1839,26.812,-0.00195,-0.02002,-0.98145,-1.981450,-19.431387,0.061,0.183,-0.183,2
2026-05-14T18:00:31.800,18.560,39098210,1840,26.796,-0.00098,-0.01807,-0.98096,-1.980960,-19.426581,0.000,0.122,-0.183,2
2026-05-14T18:00:31.823,18.583,39118204,1841,26.796,-0.00098,-0.01807,-0.98096,-1.980960,-19.426581,0.000,0.122,-0.183,2
2026-05-14T18:00:31.836,18.596,39132956,1842,26.812,-0.00244,-0.02002,-0.98047,-1.980470,-19.421776,0.122,0.183,-0.122,2
2026-05-14T18:00:31.864,18.624,39158218,1843,26.827,-0.00049,-0.02100,-0.98096,-1.980960,-19.426581,0.122,0.183,-0.122,2
2026-05-14T18:00:31.918,18.678,39178220,1844,26.812,-0.00146,-0.02051,-0.98145,-1.981450,-19.431387,-0.122,0.244,-0.122,2
2026-05-14T18:00:31.919,18.679,39193962,1845,26.812,-0.00098,-0.01904,-0.97998,-1.979980,-19.416971,0.122,0.183,-0.183,2
2026-05-14T18:00:31.925,18.684,39219231,1846,26.857,-0.00146,-0.02002,-0.98047,-1.980470,-19.421776,0.610,0.244,-0.122,2
2026-05-14T18:00:31.946,18.706,39239231,1847,26.857,-0.00146,-0.02002,-0.98047,-1.980470,-19.421776,0.610,0.244,-0.122,2
2026-05-14T18:00:31.958,18.718,39254954,1848,26.796,-0.00049,-0.02051,-0.98242,-1.982420,-19.440899,0.000,0.183,-0.122,2
2026-05-14T18:00:31.982,18.742,39280218,1849,26.842,-0.00146,-0.02100,-0.98145,-1.981450,-19.431387,0.122,0.183,-0.183,2
2026-05-14T18:00:32.007,18.767,39300210,1850,26.842,-0.00146,-0.02246,-0.98145,-1.981450,-19.431387,0.000,0.183,-0.122,2
2026-05-14T18:00:32.020,18.779,39315944,1851,26.842,-0.00146,-0.02246,-0.98145,-1.981450,-19.431387,0.000,0.183,-0.122,2
2026-05-14T18:00:32.043,18.803,39341212,1852,26.842,-0.00049,-0.02100,-0.98047,-1.980470,-19.421776,-0.305,0.183,-0.183,2
2026-05-14T18:00:32.066,18.826,39361208,1853,26.812,-0.00146,-0.02100,-0.98145,-1.981450,-19.431387,-0.122,0.122,-0.183,2
2026-05-14T18:00:32.079,18.839,39376946,1854,26.812,-0.00146,-0.02100,-0.98145,-1.981450,-19.431387,-0.122,0.122,-0.183,2
2026-05-14T18:00:32.104,18.864,39402218,1855,26.857,-0.00098,-0.02002,-0.98193,-1.981930,-19.436094,0.000,0.183,-0.183,2
2026-05-14T18:00:32.129,18.889,39422209,1856,26.857,-0.00195,-0.02148,-0.98096,-1.980960,-19.426581,-0.183,0.122,-0.183,2
2026-05-14T18:00:32.142,18.902,39437952,1857,26.857,-0.00195,-0.02148,-0.98096,-1.980960,-19.426581,-0.183,0.122,-0.183,2
2026-05-14T18:00:32.180,18.939,39474946,1858,26.902,-0.00146,-0.02002,-0.98096,-1.980960,-19.426581,0.000,0.122,-0.122,2
2026-05-14T18:00:32.205,18.965,39500208,1859,26.872,-0.00049,-0.02051,-0.98193,-1.981930,-19.436094,-0.122,0.183,-0.183,2
2026-05-14T18:00:32.230,18.990,39520212,1860,26.872,-0.00146,-0.00049,-0.00049,-1.000490,-9.811455,-0.061,-0.061,-0.061,2
2026-05-14T18:00:32.242,19.002,39534955,1861,26.872,-0.00146,-0.02051,-0.98193,-1.981930,-19.436094,-0.305,0.122,-0.244,2
2026-05-14T18:00:32.267,19.027,39561237,1862,26.872,-0.00293,-0.01953,-0.98047,-1.980470,-19.421776,-0.244,0.183,-0.122,2
2026-05-14T18:00:32.292,19.052,39581213,1863,26.902,-0.00098,-0.02051,-0.98096,-1.980960,-19.426581,-0.183,0.183,-0.122,2
2026-05-14T18:00:32.305,19.065,39596960,1864,26.842,-0.00098,-0.01904,-0.98096,-1.980960,-19.426581,-0.305,0.183,-0.183,2
2026-05-14T18:00:32.328,19.088,39622212,1865,26.887,-0.00098,-0.02002,-0.98096,-1.980960,-19.426581,-0.366,0.183,-0.122,2
2026-05-14T18:00:32.353,19.113,39642228,1866,26.917,-0.00146,-0.02051,-0.98242,-1.982420,-19.440899,-0.244,0.244,-0.122,2
2026-05-14T18:00:32.367,19.127,39656968,1867,26.902,-0.00098,-0.01953,-0.98145,-1.981450,-19.431387,-0.244,0.122,-0.183,2
2026-05-14T18:00:32.419,19.179,39683228,1868,26.902,-0.00146,-0.02051,-0.98145,-1.981450,-19.431387,-0.183,0.122,-0.122,2
2026-05-14T18:00:32.420,19.180,39703213,1869,26.842,-0.00098,-0.01953,-0.98047,-1.980470,-19.421776,-0.183,0.183,-0.122,2
2026-05-14T18:00:32.427,19.186,39718972,1870,26.887,-0.00293,-0.02051,-0.98242,-1.982420,-19.440899,-0.305,0.183,-0.122,2
2026-05-14T18:00:32.445,19.205,39744212,1871,26.872,-0.00146,-0.01953,-0.98096,-1.980960,-19.426581,-0.244,0.183,-0.122,2
2026-05-14T18:00:32.466,19.226,39764228,1872,26.872,-0.00146,-0.01953,-0.98096,-1.980960,-19.426581,-0.244,0.183,-0.122,2
2026-05-14T18:00:32.479,19.238,39778955,1873,26.902,-0.00195,-0.02051,-0.98047,-1.980470,-19.421776,-0.732,0.183,-0.061,2
2026-05-14T18:00:32.515,19.274,39805228,1874,26.902,-0.00244,-0.01904,-0.97998,-1.979980,-19.416971,-0.305,0.183,-0.061,2
2026-05-14T18:00:32.527,19.287,39825213,1875,26.902,-0.00098,-0.01953,-0.98145,-1.981450,-19.431387,0.000,0.183,-0.122,2
2026-05-14T18:00:32.552,19.312,39840972,1876,26.902,-0.00098,-0.01953,-0.98145,-1.981450,-19.431387,0.000,0.183,-0.122,2
2026-05-14T18:00:32.577,19.337,39866231,1877,26.932,-0.00098,-0.01953,-0.98096,-1.980960,-19.426581,-0.488,0.183,-0.183,2
2026-05-14T18:00:32.590,19.350,39886220,1878,26.902,-0.00146,-0.01855,-0.98047,-1.980470,-19.421776,-0.366,0.183,-0.183,2
2026-05-14T18:00:32.603,19.363,39900954,1879,26.902,-0.00146,-0.01855,-0.98047,-1.980470,-19.421776,-0.366,0.183,-0.183,2
2026-05-14T18:00:32.627,19.387,39927235,1880,26.902,-0.00098,-0.02051,-0.98145,-1.981450,-19.431387,-0.183,0.244,-0.122,2
2026-05-14T18:00:32.652,19.412,39947213,1881,26.917,-0.00146,-0.01904,-0.98242,-1.982420,-19.440899,-0.305,0.183,-0.183,2
2026-05-14T18:00:32.665,19.424,39962959,1882,26.917,-0.00146,-0.01904,-0.98242,-1.982420,-19.440899,-0.305,0.183,-0.183,2
2026-05-14T18:00:32.690,19.450,39988205,1883,26.932,-0.00049,-0.01953,-0.98193,-1.981930,-19.436094,-0.061,0.183,-0.183,2
2026-05-14T18:00:32.716,19.475,40008212,1884,26.932,-0.00146,-0.01904,-0.98096,-1.980960,-19.426581,0.061,0.183,-0.183,2
2026-05-14T18:00:32.728,19.488,40023958,1885,26.932,-0.00146,-0.01904,-0.98096,-1.980960,-19.426581,0.061,0.183,-0.183,2
2026-05-14T18:00:32.753,19.513,40049226,1886,26.963,-0.00146,-0.01904,-0.98096,-1.980960,-19.426581,-0.915,0.183,-0.061,2
2026-05-14T18:00:32.778,19.538,40069221,1887,26.963,-0.00098,-0.01758,-0.98096,-1.980960,-19.426581,-0.610,0.183,-0.122,2
2026-05-14T18:00:32.791,19.551,40084968,1888,26.963,-0.00098,-0.01758,-0.98096,-1.980960,-19.426581,-0.610,0.183,-0.122,2
2026-05-14T18:00:32.814,19.574,40110229,1889,26.932,-0.00098,-0.02002,-0.98145,-1.981450,-19.431387,0.000,0.183,-0.122,2
2026-05-14T18:00:32.837,19.597,40130221,1890,26.917,-0.00146,-0.01758,-0.97998,-1.979980,-19.416971,0.183,0.183,-0.183,2
2026-05-14T18:00:32.850,19.610,40145968,1891,26.917,-0.00146,-0.01758,-0.97998,-1.979980,-19.416971,0.183,0.183,-0.183,2
2026-05-14T18:00:32.916,19.676,40171220,1892,26.963,-0.00244,-0.02002,-0.98340,-1.983400,-19.450510,-0.427,0.183,-0.183,2
2026-05-14T18:00:32.917,19.676,40191221,1893,26.932,-0.00195,-0.01855,-0.98193,-1.981930,-19.436094,-0.549,0.183,-0.122,2
2026-05-14T18:00:32.917,19.677,40206956,1894,26.932,-0.00195,-0.01855,-0.98193,-1.981930,-19.436094,-0.549,0.183,-0.122,2
2026-05-14T18:00:32.943,19.703,40232217,1895,26.932,-0.00195,-0.01855,-0.98193,-1.981930,-19.436094,-0.183,0.244,-0.122,2
2026-05-14T18:00:32.954,19.714,40252221,1896,26.947,-0.00195,-0.01855,-0.98096,-1.980960,-19.426581,0.122,0.122,-0.122,2
2026-05-14T18:00:32.976,19.736,40267943,1897,26.947,-0.00195,-0.01855,-0.98096,-1.980960,-19.426581,0.122,0.122,-0.122,2
2026-05-14T18:00:32.999,19.759,40293210,1898,26.993,-0.00098,-0.01904,-0.98389,-1.983890,-19.455315,-0.854,0.183,-0.122,2
2026-05-14T18:00:33.024,19.784,40313210,1899,26.978,-0.00146,-0.01758,-0.98047,-1.980470,-19.421776,-0.366,0.183,-0.183,2
2026-05-14T18:00:33.037,19.797,40327943,1900,26.978,-0.00146,-0.01758,-0.98047,-1.980470,-19.421776,-0.366,0.183,-0.183,2
2026-05-14T18:00:33.062,19.822,40354209,1901,26.947,-0.00195,-0.02002,-0.98389,-1.983890,-19.455315,-0.305,0.183,-0.122,2
2026-05-14T18:00:33.075,19.835,40374212,1902,26.993,-0.00146,-0.01904,-0.98096,-1.980960,-19.426581,-1.280,0.183,-0.122,2
2026-05-14T18:00:33.100,19.860,40389958,1903,26.993,-0.00146,-0.01904,-0.98096,-1.980960,-19.426581,-1.280,0.183,-0.122,2
2026-05-14T18:00:33.125,19.885,40415214,1904,26.993,-0.00195,-0.01660,-0.98047,-1.980470,-19.421776,-0.427,0.183,-0.122,2
2026-05-14T18:00:33.138,19.898,40435212,1905,26.947,-0.00098,-0.01807,-0.98242,-1.982420,-19.440899,-0.061,0.183,-0.122,2
2026-05-14T18:00:33.160,19.920,40449955,1906,26.947,-0.00098,-0.01807,-0.98242,-1.982420,-19.440899,-0.061,0.183,-0.122,2
2026-05-14T18:00:33.194,19.954,40486969,1907,26.993,-0.00098,-0.01758,-0.98242,-1.982420,-19.440899,-0.061,0.183,-0.183,2
2026-05-14T18:00:33.220,19.980,40512231,1908,27.008,-0.00146,-0.01758,-0.98096,-1.980960,-19.426581,0.061,0.183,-0.061,2
2026-05-14T18:00:33.232,19.992,40532227,1909,26.963,-0.00195,-0.01807,-0.98145,-1.981450,-19.431387,0.244,0.183,-0.122,2
2026-05-14T18:00:33.257,20.017,40547967,1910,26.963,-0.00195,-0.01807,-0.98145,-1.981450,-19.431387,0.244,0.183,-0.122,2
2026-05-14T18:00:33.281,20.041,40573236,1911,27.008,-0.00146,-0.01855,-0.98193,-1.981930,-19.436094,-0.793,0.183,-0.122,2
2026-05-14T18:00:33.304,20.064,40593220,1912,27.008,-0.00146,-0.01611,-0.97998,-1.979980,-19.416971,-0.915,0.122,-0.122,2
2026-05-14T18:00:33.317,20.077,40608956,1913,27.008,-0.00146,-0.01611,-0.97998,-1.979980,-19.416971,-0.915,0.122,-0.122,2
2026-05-14T18:00:33.342,20.102,40634218,1914,27.008,-0.00195,-0.01660,-0.97998,-1.979980,-19.416971,-0.976,0.183,-0.183,2
2026-05-14T18:00:33.408,20.168,40654227,1915,26.993,-0.00146,-0.01611,-0.97949,-1.979490,-19.412166,-0.732,0.183,-0.183,2
2026-05-14T18:00:33.420,20.180,40669954,1916,26.993,-0.00146,-0.01611,-0.97949,-1.979490,-19.412166,-0.732,0.183,-0.183,2
2026-05-14T18:00:33.421,20.181,40695228,1917,26.993,-0.00146,-0.01660,-0.98145,-1.981450,-19.431387,0.244,0.183,-0.183,2
2026-05-14T18:00:33.421,20.181,40715220,1918,27.008,-0.00098,-0.01611,-0.98145,-1.981450,-19.431387,0.183,0.122,-0.122,2
2026-05-14T18:00:33.433,20.193,40730957,1919,27.008,-0.00098,-0.01611,-0.98145,-1.981450,-19.431387,0.183,0.122,-0.122,2
2026-05-14T18:00:33.458,20.218,40756208,1920,27.008,-0.00195,-0.01611,-0.97949,-1.979490,-19.412166,0.244,0.183,-0.122,2
2026-05-14T18:00:33.482,20.242,40776204,1921,26.993,-0.00195,-0.01709,-0.98145,-1.981450,-19.431387,0.122,0.183,-0.183,2
2026-05-14T18:00:33.494,20.254,40790930,1922,26.993,-0.00195,-0.01709,-0.98145,-1.981450,-19.431387,0.122,0.183,-0.183,2
2026-05-14T18:00:33.519,20.279,40816201,1923,27.023,-0.00098,-0.01660,-0.98193,-1.981930,-19.436094,-0.061,0.183,-0.122,2
2026-05-14T18:00:33.545,20.304,40836212,1924,27.008,-0.00098,-0.01611,-0.97949,-1.979490,-19.412166,0.000,0.183,-0.122,2
2026-05-14T18:00:33.557,20.317,40851956,1925,27.008,-0.00098,-0.00049,-0.00049,-1.000490,-9.811455,-0.061,-0.061,-0.061,2
2026-05-14T18:00:33.583,20.343,40877211,1926,27.023,-0.00244,-0.01807,-0.98193,-1.981930,-19.436094,0.122,0.183,-0.122,2
2026-05-14T18:00:33.609,20.369,40897202,1927,27.038,-0.00098,-0.01660,-0.98096,-1.980960,-19.426581,-0.061,0.122,-0.122,2
2026-05-14T18:00:33.620,20.379,40911958,1928,27.038,-0.00098,-0.01660,-0.98096,-1.980960,-19.426581,-0.061,0.122,-0.122,2
2026-05-14T18:00:33.643,20.403,40938220,1929,27.038,-0.00049,-0.01709,-0.97900,-1.979000,-19.407360,-0.183,0.183,-0.122,2
2026-05-14T18:00:33.668,20.428,40958211,1930,27.023,-0.00293,-0.01709,-0.98145,-1.981450,-19.431387,0.061,0.183,-0.122,2
